t,ax,ay,az,wx,wy,wz
1.6099999999999999,-0.1119699072456177,0.10767205161676001,10.07971452149608,0.0006937556377591076,0.05258953709543584,0.009699965507634068
1.62,-0.16738095162013764,0.06314565647050267,9.62368275590296,-0.006708305084824247,0.021633205497329572,0.028295380802002945
1.63,0.15352146876765152,0.01099226094130145,9.914430694629171,0.0037759959526144017,0.008303045912755441,-0.0022206704824045144
1.6400000000000001,0.07359277743198331,0.14765980372694698,9.832866820302332,0.02038168771090163,0.014143716508307383,0.018529835273571063
1.65,-0.23480135403893723,0.0872526126133178,9.527271696653354,-0.02523133414815496,-0.017940940131339837,-0.016717781615480664
1.6600000000000001,-0.03657449566931481,-0.052831238086336704,9.57999266685267,0.043056188323681285,0.00576188666962978,0.023149316114161454
1.67,-0.20034043919813552,-0.1128086425466737,9.929521122096222,-0.04223291181534663,-0.01768976302082345,-0.0011273137882889823
1.6800000000000002,-0.023806360544873964,-0.09629854603448881,9.765306205411855,-0.015266200735498702,-0.0032426588475599895,-0.014290618252106426
1.69,-0.07762422248511006,0.21976859467256865,10.188048777391215,0.011209401777461013,0.003462239433108392,0.0116626769844098
1.7000000000000002,0.031845872768112106,-0.19932672545172256,9.599749652697845,0.03702551738533699,0.013088992294415718,-0.048376991876841434
1.71,-0.04316833882984405,-0.44549342359490035,10.020615680571892,-0.0031707155833463176,0.00015597508770804347,-0.004623973229706966
1.7200000000000002,0.2187806036896522,0.04758398506943584,9.745035660190338,-0.032010971301262924,-0.01879810536113288,-0.03446849610960192
1.73,0.2793976768426046,0.08366148967204631,9.795654556634434,0.006053363196732589,-0.002877582697997274,0.010729357047420337
1.74,-0.006568830777372727,0.015932843212422346,9.640026659551356,-0.03810545984443748,-0.011056250469049733,0.026503339500644853
1.75,-0.12132342834013468,-0.0005623279791837828,9.911601783850731,-0.03807841102481907,-0.015187586038815983,-0.003301247544059648
1.76,0.2705161303924065,0.17567740799611847,9.795779342020367,0.021370224053717034,-0.005420043442599415,-0.0011856858141146393
1.77,-0.13808617822541608,-0.20689548097572552,10.087597517091528,-0.009006849819483954,0.027652021822197347,0.05333118800156424
1.78,0.06576794085148431,-0.0014074498553386836,9.885083149409246,-0.0011173443759153316,0.00958481041094578,-0.033742247525728006
1.79,-0.19751559338772587,-0.41035636298078093,9.94241818928847,0.027362019410036197,0.0006281361980533588,-0.007940878655318319
1.8,0.04220686338144315,0.3808494335252013,9.92482299244627,0.017802954477208185,-0.042212290507502664,0.017999096798753143
1.81,-0.04067743633758973,-0.04509365343020119,9.804481811937407,-0.012364263183163953,-0.004223003798581873,-0.01336028349774428
1.82,0.32228840030856454,-0.13246315065508696,9.793813293839076,-0.014506566179055885,0.013323195429030337,0.03577352103460264
1.83,-0.3834093679367447,-0.016454352348198645,9.645414856130488,-0.015741361403084516,0.03611292269273403,-0.016287172256538317
1.84,0.11818352172895759,0.1432588810488259,9.815791968495105,-0.013472444163954711,-0.03818272381266388,0.008163853680944032
1.85,0.009955286403186029,0.04300256000784377,9.881930054602956,0.024632598506865323,0.03542429656472163,-0.0026706841985095907
1.86,-0.2032969510096196,0.004217427425171037,9.877843839178475,-0.020936725097302097,0.016016996531308128,0.00823692309602072
1.87,0.4018818604051561,0.20803330468734588,9.5946076435359,-0.019675832114472887,-0.028326276036811315,0.033970064162997055
1.88,0.12988901854659357,-0.2505868256192112,9.857715431916418,0.0011802962269124165,0.0019685280511402017,0.001348274535670191
1.8900000000000001,0.14608602941284404,0.0994248717722002,10.06832104288838,-0.012014793505683768,-0.025911557728348335,0.0004798418760416422
1.9,-0.44004811677976235,-0.24764115560840552,10.221388614514252,0.019611888120024158,0.0199873813921765,-0.007996818780177507
1.9100000000000001,0.1305250549853642,-0.036692429303927424,9.795098639325511,-0.0051135315759934675,0.010768790231963934,0.02467970324238481
1.92,-0.02622584792113237,0.3685924440141668,9.978874916094695,0.0038643916316092016,0.0014280946208998072,-0.007656055005109509
1.9300000000000002,-0.1787388661980137,-0.13883186826075594,9.961344922560636,0.017261835135599642,-0.02641867163121293,-0.016241341484118103
1.94,0.040743364545351206,0.10846593194509152,9.689156733404658,0.02380369390635665,-0.04048226453854596,0.014466813096520403
1.9500000000000002,-0.1464940592944329,0.033838208360575356,9.790642787873677,-0.012238344779043522,0.030003209663375042,0.03706262032571954
1.96,0.1382087946157019,-0.3591191211142577,9.608718598478424,0.0010529270996146184,-0.01638862838778674,0.008462079589440995
1.9700000000000002,0.2221132318001458,-0.07085305019090014,9.740226756353723,0.0054773444281968784,-0.01706043879207703,-0.008365486243084039
1.98,0.06121015980924475,0.003960274227611022,9.525552046644558,-0.003233856186256218,0.010098912890559687,0.031410042939551464
1.9900000000000002,0.17047655435915657,0.17396869023662884,10.112301295506212,0.02420035487283804,-0.0077363477184563545,-0.01612279973832573
2.0,-0.11431716274154156,-0.20539242956950154,9.92902028252393,0.001346882560874733,0.014450275662242273,-0.005870489966977349
2.01,0.1222923256990412,0.10031758270650822,9.803733576027437,-0.012225240866440064,0.0185332518917992,0.01103834277893407
2.02,0.19020401500458547,-0.036866895184023876,10.210461550559858,-0.00998081409190632,0.005174822618341491,0.004799526001184782
2.03,-0.07323051849253136,-0.08748414305568626,9.853152385292843,0.011533281855714039,0.052698791763890716,0.010577992037542254
2.04,0.27397264822278344,-0.18774699277830847,9.974062928413387,-0.001969119580941512,0.017866921988677537,0.0016846213058169697
2.05,0.1969037675652309,0.11137712191587777,9.667752889582589,0.01553531769429501,-0.018185184326295886,-0.02053618677269443
2.06,-0.05317018901507318,-0.12615670738755352,9.504872341417789,-0.008758363218104954,0.027922651104096752,-0.039318656526471055
2.07,-0.3519265074432078,0.17766616439469343,9.71819723107344,0.02609211111272318,-0.05426207258504365,0.012414602941675236
2.08,0.16213831318304459,0.006015642486639764,10.066783572327907,0.022454545608280814,0.027354708516076378,0.003800843053561827
2.09,-0.10571401541175122,0.09336392363412878,9.983891078774729,0.014276214557619073,-0.0022488785412475005,0.04508960141747976
2.1,0.04056155464127379,-0.08342458068845418,9.43405288403909,-0.00734978286860629,0.0052288814626431,-0.014822642530440282
2.11,-0.01091835012159123,0.030012627426412114,9.895995178023185,0.02679709883981872,-0.005474709833883011,-0.013138142810018613
2.12,0.5233455495776311,-0.1253200089503083,9.894458204501255,-0.03774402412478367,0.0006506530837937046,-0.05290109138757464
2.13,0.16267823660418576,0.2732206832372753,9.748637853349852,0.029918551478007562,0.010891323472851688,0.014479265644542327
2.14,0.08831224823210782,0.11546400277950289,9.831422620395355,0.0032274809112120247,0.0036152329847138655,-0.04419213561408721
2.15,-0.25349257104144807,-0.3229664169539354,9.758733385658195,0.013821187026444554,0.003423196202608332,0.017575812037523782
2.16,0.26731922851939177,-0.32208606840742665,9.752249412647776,-0.030736712615741284,0.04313307275554254,0.02687447035464236
2.17,0.09870468153258412,-0.02963983771781287,9.681308418319553,0.017282548065517336,-0.03263133836500291,-0.02527701924174566
2.18,-0.09470109361624837,-0.034797883704943036,9.751135599528972,-0.012779129866778935,-0.010404531154902086,-0.010169870339169464
2.19,0.11420128656652127,0.19597393477134478,9.921049746175429,0.012429990373936755,-0.010468680798609426,0.009261849549893281
2.2,-0.15976137813305943,-0.13274565787618692,10.079536338229877,-0.023585405956809257,-0.019897568541566123,0.007869493134149004
2.21,0.034372531026221155,0.2428868836851347,9.89951055839675,0.0066430134644774,-0.0013882646458417925,-0.01850978511089027
2.22,-0.5353270264976763,-0.2865019412399087,9.931198499681564,0.0243566564771614,-0.007247247075885299,0.030494176701201595
2.23,0.0042608548794738485,0.25909652245989456,10.023987884703,0.014797943410538243,-0.031040536746033257,0.0010162981942207945
2.24,-0.13463812622035806,-0.051466630403787926,9.783582019075883,0.032227763572032636,0.024021743855130288,-0.028636696903161854
2.25,-0.1375664051687224,-0.23128172516738202,9.719244158240782,-0.027105969968003518,0.0159546847230518,0.004169930422369674
2.26,-0.21037642364309536,-0.026814510698190637,9.630002315472119,-0.009854578767463033,0.003833760434298376,-0.010851767624703707
2.27,0.19278052444162108,-0.14800492533002085,10.017765321799612,-0.013401670594464024,0.0459056597315542,0.02917359415636814
2.2800000000000002,0.08896360707527748,-0.21347376375628713,9.861253523100201,-0.009497422820045138,0.0009093233809152785,0.04409208716990892
2.29,0.18434966988449372,-0.16110720607511764,9.91528321348989,0.042433605011629044,-0.0023013464632695895,0.00791050247358077
2.3,0.040420823223330904,-0.06434789674527762,9.773243688643975,0.006029620599608745,-0.01219940851447344,-0.027709444955165044
2.31,-0.03105322397267836,-0.0319128511993454,9.859614688365946,-0.010138652598428596,0.0070715670683572755,-0.016009269035221988
2.32,-0.007802453134936877,0.0030372467902865766,9.667922185355934,-0.026728309123104893,0.023551759644457552,0.001748281344545067
2.33,0.07898107331156871,-0.0871725918802005,9.777824297904518,0.03542524799889434,0.018932061464088386,-0.03408863685041825
2.34,0.18464534493897047,-0.11562659625293842,9.644156263416011,0.027382148123352594,-0.0067741255354427515,-0.01249395501140628
2.35,0.052248673700814326,0.33419378825088236,9.734477165431075,0.007019816904987648,-0.008111894976810597,-0.006847356061397326
2.36,0.29307522571317357,-0.09936058263371197,9.696677006975792,-0.005111342169925896,-0.006619559946207871,-0.011474837588945231
2.37,0.027452580224948404,-0.2280887492054116,9.702514636220554,-0.006772515530314578,0.0015913637975178833,0.0032289799222334583
2.38,0.10709607356192272,0.18265002644582443,9.801008058774043,0.041573249510858876,0.03232098628441479,0.005274093162825878
2.39,-0.07447493353540881,-0.0007011781479179247,9.766755644345537,-0.044948324153455725,0.007989473207994473,0.012246467851581578
2.4,0.021711235427436783,-0.09647356588743758,9.352123306068526,-0.0005893501730280123,0.029932434439740377,0.023634167719884993
2.41,-0.31471377648956284,0.19084497742343123,9.838386239661713,-0.0267527414942548,-0.003160094808036176,0.0020346859516213183
2.42,-0.05358579343889007,-0.07139204972701169,9.997752936948746,0.017241568360864594,-0.011965464616126267,0.012834055722048834
2.43,-0.013212946644563314,-0.2323682029899185,9.745581843904258,-0.013532852725772726,0.016139947291790607,-0.02185273939392044
2.44,-0.013864047209201565,0.06269660015103082,9.919087747703147,0.0059863151354461975,-0.008163340223299788,0.007322449592080983
2.45,-0.18279000724582317,0.12305476462595918,9.921356422364594,0.017718895371522724,-0.009107180252789575,0.00893656427150526
2.46,-0.1613080408492492,0.20230032118630628,9.965269459354982,0.02785906882014662,0.008984019241065701,0.010774283994775289
2.47,-0.0024951844357255547,0.12382272356207778,9.71796026400721,-0.017043763235909896,-0.022530253126983816,0.00019307406654573103
2.48,-0.09948303264953107,0.09816259346445066,9.88588867784057,0.018258396977981525,0.05523131749576059,-0.012993996844824838
2.49,-0.14689454108563055,-0.06535075584749792,9.792337484899107,-0.0013059884832405408,0.009417527305206176,0.024072423715136366
2.5,0.2987142185218293,0.03917026917295671,9.804454600577435,-0.0005430200808044204,-0.001866465166821931,-0.014798923080767627
2.51,0.02608957089987729,-0.19270951505531075,9.746006799741542,-0.033363334666952585,-0.0029298658545471395,0.024968433404418244
2.52,-0.24144384830423637,-0.1384377146589907,10.042242891515011,-0.0008525687271528402,0.0002518552293432101,-0.012763930299944595
2.5300000000000002,-0.13708094963499734,-0.22524948301515008,9.705924230182529,0.024035012236160322,0.00936573834792373,-0.039716607671454185
2.54,-0.15772305472954087,-0.11699332690949268,9.816952424806129,-0.017610420399022497,-0.00028183829383157964,-0.03422577671952063
2.55,-0.2161992906674259,0.10238303042190533,9.900784263386592,-0.011517881154695302,-0.005674264435291863,-0.0010765231853228315
2.56,0.2962220772774865,-0.030019729672054893,9.989608445080114,-0.0035196769166404994,-0.02058922240494251,-0.013298758006688179
2.5700000000000003,-0.3221920205871299,-0.10227575431425093,10.152027313082458,-0.046245648015920245,0.029367359717678006,0.007243269528801194
2.58,-0.1238320539925216,0.17229395460254235,9.826173345984865,-0.02094872094510848,-0.0067711349390615514,-0.008282614359686793
2.59,0.3560288908583322,0.012141895530508047,10.138536860309898,-0.0029785112329979704,0.004200188260971322,-0.0011464555228920508
2.6,-0.16037850752949204,0.15948873313710185,9.858543754667684,-0.02066342387918586,0.00879774409504422,-0.0289223092486612
2.61,0.11169212554132009,-0.2734307153809837,9.971951349811134,-0.012643179143570191,-0.016250745656164075,-0.018512477596570515
2.62,-0.42199544163900815,-0.2251810481004043,9.585331987233424,0.0324215833913566,0.011533462339217941,0.002169317564149324
2.63,-0.067929341127225,-0.20776619140998032,9.57170469874626,0.02980009723436803,-0.0006017486814338034,0.01791333348212864
2.64,-0.21863940050808084,0.06880562182030688,9.732447405328024,0.006731727224767022,-0.0004225713972407079,-0.04467645686052384
2.65,0.013278817388552881,-0.3179750826140534,9.663661075745418,-0.013374675033804673,0.0036517214528947496,-0.03541210794813721
2.66,-0.162972841636853,-0.0162722103139612,9.960670322720752,-0.011917306213585029,-0.024327629255573364,0.00018794930229812392
2.67,-0.08362182603579771,0.10277111541977882,9.797913804341034,-0.009807876158448829,-0.031946381839710596,-0.0510155960274838
2.68,-0.08973643254685842,-0.09258647863542531,9.816922750111171,-0.00965592757611076,-0.008062142760871025,-0.025991046847672138
2.69,-0.12422155402093531,0.16968214309805965,9.82041378695792,0.02279076022263226,0.002713318630418006,0.03314686563257191
2.7,-0.2114341365303491,-0.08776588508990314,9.97052013585723,0.00639428373703678,-0.0022828929934466087,0.0033034724092156444
2.71,-0.019355453013677842,-0.1486714291468678,9.529200531419946,0.012536565119143315,0.014328935212994559,-0.028143562224112264
2.72,-0.10310403810640238,-0.23501872143819433,9.849432367789984,-0.005838960682208613,-0.02204970165260568,-0.029906042586786953
2.73,0.2400281699640799,-0.21874110784989656,10.049648390577978,-0.002585201402257732,-0.018787019913191698,-0.0009673921430656628
2.74,0.17591521341297298,0.08093245782850239,10.008061566407493,-0.00493667085996851,-0.0006057448340218064,-0.012364360078002248
2.75,0.08387036750016667,-0.052687749544539766,9.652796554050743,-0.0053249719276195154,0.005945194664094641,-0.018287812079505476
2.76,0.08786824802073039,-0.01586143874926664,9.542911582372309,-0.018193619523245646,-0.03511560328808728,-0.0011540792645246213
2.77,0.10169551521525097,-0.10826847338866968,9.746042648026007,0.006134021367464127,0.00029790886457464446,0.03264607508387262
2.7800000000000002,0.06804262650473962,0.012205317987197551,9.684179078752521,-0.02962027487340079,-0.002678588902842994,0.00941463099528374
2.79,-0.22909912778904432,-0.16867383141202275,9.613558362169526,-0.025611073030761513,-0.027741194122175475,0.009751090820170732
2.8,-0.029301466972706854,0.0312991891919208,10.140066104802127,-0.03282180739864879,0.022992601919339273,-0.01868764920066878
2.81,-0.005464750592347139,0.04141599582270424,9.71535923012842,0.006140187426082228,0.012008297896126731,-0.0027657248993454417
2.8200000000000003,-0.24767144528947904,0.07683628888875722,9.706122637661892,0.03481417076106084,0.003942478738625089,-0.010399376841021532
2.83,0.2606621084227924,0.032026599558497355,9.395299678013949,0.006515510735414369,-0.01404795123963042,0.022631841692411676
2.84,-0.02531489686863348,0.1035308886521905,10.007056812767985,-0.017014028592745003,-0.009600992564678475,-0.021202689743478796
2.85,-0.31224693816373095,-0.22245680352767072,9.672351313454643,-0.0061408980385740065,-0.02957521402203919,-0.010442701532321857
2.8600000000000003,0.16514058282465963,0.6362637702091146,9.764672040900946,-0.01513256692239831,0.012607099006903861,0.03187776321467338
2.87,0.13329541241553625,0.054775425581094564,9.88522659938241,0.015026136394597517,-0.0009464924072804436,-0.02047476688457909
2.88,-0.11858901019176932,0.31762549631568276,9.96796095716827,0.0236539256713959,0.012606590468315755,0.033429925059004065
2.89,0.250294886324929,0.17464599835453967,9.862828058524247,-0.008855257683886874,0.013739655069605582,-0.024873211603406577
2.9,-0.04441450079458285,0.06240964278192596,9.849334602355155,-0.021397870064652956,-0.012019869038227366,0.02831010277732204
2.91,0.09881200204555807,0.05456900319115428,9.983709049731125,-0.018384064315510536,0.02385561464576765,0.02328094752283189
2.92,0.35566457384012373,0.03785869077572348,9.712580478568883,0.020853409657456048,-0.0007925956686819644,0.0006685192415782966
2.93,-0.13672970589792982,-0.12252619982509477,9.892169958072156,-0.01922992742581981,1.6877669780738045e-05,0.009123588508033428
2.94,0.021965159517979754,0.040958644501739666,9.789842239314948,0.002980358545734824,0.016355646449211093,-0.006205170624938351
2.95,0.16514949547511543,-0.09812549403340974,9.653408601705724,-0.02813591536438264,-0.02765942587979502,0.019243180429569434
2.96,-0.06569490339993778,0.22204971082937708,9.79480531494577,-0.004243463905946017,-0.045817776675716536,-0.0032330823681237793
2.97,0.031403035620327105,-0.04524980313510281,9.796940260524561,0.009573794495235783,0.012852951806028816,0.023858189177288654
2.98,0.08556735280647168,0.028259711796739886,9.502127158032039,-0.034820769663699236,-0.026422450919573598,-0.017761757684509355
2.99,0.4227345079648892,0.11244246708760797,9.988325615580658,0.021832114193909152,0.004897994631364655,0.0001446912691195206
3.0,0.07630608498816703,0.13330788833573098,9.651746944911075,0.01571711685365946,0.002643988589782427,0.022461448297376754
3.01,0.1800426716002234,0.07903096882025448,9.840232957706334,0.019070763145485187,-0.016533728950470977,-0.01449778604664333
3.02,0.15171830667889946,0.22187161501495903,9.892877612682323,0.013864209075873515,-0.009069330481710096,0.01986979935613988
3.03,0.28806715084682216,0.16326285483052963,9.998266478546245,-0.03487482176221106,-0.00475127914641428,-0.015447696882896652
3.04,0.4295172172127585,-0.26419417602742273,9.946860105968364,0.020305418200287015,0.027964595413111505,0.0013366903230100718
3.05,0.05512699642638114,0.04699076012624013,10.131080689691164,0.0027387591358295437,-0.018706937985992513,-0.014329687930482149
3.06,0.09472661323964492,0.13025247747848104,9.75839638230299,0.01730261515290807,0.016607048431690107,0.016964512458879265
3.07,-0.023496869553574593,0.05549815924489004,10.062241020016028,-0.01267058122008621,-0.029670736159509437,0.012472445142246559
3.08,-0.09850931845684643,-0.047140806783262504,9.86331655699244,0.01179398932425094,-0.021362865595241236,0.024970296021449068
3.09,0.16962909656185476,-0.17629018228012447,9.650480466085908,0.0157604555908032,-0.005755173454029693,0.003298333477912911
3.1,-0.1821324043267312,0.1427172755557384,9.945953920514558,-0.027431394651498,-0.0016455719429154315,-0.034432069202139336
3.11,-0.23723582573285593,-0.18533881521156145,9.873886244472297,-0.004069139045303614,-0.02419399979036456,-0.02291312192271341
3.12,-0.18022431133359154,0.13080645056790655,10.023229577698123,-0.006716663551362367,0.02227078738407875,0.05278455101138256
3.13,-0.007980436989904728,0.021039863114731844,9.67860785128804,0.004617097887141437,0.00065666480751921,-0.004408870934865189
3.14,-0.0785154267589198,-0.13952919043598042,9.764550744147513,0.02011346304230331,-0.02234206375431884,0.006615757500945499
3.15,0.04970766619861699,0.03719918969503981,10.049196353844149,-0.05563225363143957,0.00512538422005922,-0.03541532510898798
3.16,0.24843332761449383,0.17953568680373708,10.000505288753235,0.02612948984633692,0.0068990606616832805,-0.02232442855903206
3.17,0.12600389041640342,0.08232657552185013,9.71172974440009,0.012572357767909818,-0.0047505793892523565,0.021455990823500498
3.18,0.24078502706019003,-0.21525296606168948,9.79873403957007,-0.02891208682150191,0.01111390648208541,0.032468146507572675
3.19,0.1560576891418725,0.01602580418575143,9.93498854147172,0.04074288145082539,-0.011810532907449989,-0.02490625665966966
3.2,-0.1696352462166485,0.12914720179590164,9.925179993187909,0.01743347855794189,-0.019658728539253673,-0.028203466630082615
3.21,-0.2378616064092306,0.1617843854734508,9.950174805045958,0.027721358839589406,0.006731397811445431,0.004205585281575856
3.22,0.15679593157568703,-0.22454501842692107,10.198449648480914,0.01124859142251383,-0.018470373046500777,-0.011079935855136636
3.23,-0.207715622804458,0.199325600413038,10.160813614323036,-0.008942682841147475,-0.015982423498607106,-0.007092712936935891
3.24,-0.21263127923156885,-0.17733042105452734,10.03227399999856,0.025344165858584042,-0.04601994663138364,0.0009887875362843104
3.25,-0.4278232654821192,-0.15253856129765467,9.851301606441215,0.03167629439218353,0.022429986993380578,-0.021465002888771928
3.26,0.07022639469415425,0.023346038405341576,9.688354458325284,-0.01200267849379512,0.03058563966751006,-0.01122180577913196
3.27,0.06296971472106797,-0.009309541579816035,9.905726425053068,0.018202009394596423,0.0015327573813800832,-0.021141101121687832
3.2800000000000002,0.03589555446474462,0.019889979686661056,9.891052569530185,-0.03393839401574604,0.005787730311333851,0.004762531873323116
3.29,-0.037655610421441936,-0.053038745279940736,10.180720704474075,-0.013954011411541208,-0.023864809178183545,-0.005443469381151624
3.3,0.24098787079512687,0.1120120441457793,9.947317015637385,-0.012743399411063375,-0.01017368829834417,0.004097690070454528
3.31,-0.14239946144767157,0.08116401278717209,10.024033984168378,-0.02522702249325088,0.012571661884900474,0.021093382937966646
3.32,-0.164422464411839,0.12505315718550347,9.917000751624718,0.01221517286739354,-0.019627699895068254,0.036164298963503184
3.33,0.011143350128096035,0.07436991936121051,9.838729542208442,-0.008818609178519062,-0.005181482003995244,0.01549769516676837
3.34,-0.10495844505278877,0.10090794970756424,10.015319169677813,0.035112639188768106,0.003667453140848375,-0.02359746149191741
3.35,0.10895055063879708,-0.23768386158170524,10.002492366019458,-0.014241271517609884,0.040078141763505555,-0.0020970135608264183
3.36,-0.1704803458860719,-0.4395261936829801,9.742917319491433,0.013477168406514268,-0.009912538766771237,-0.02600829886859268
3.37,0.25383001206676536,-0.0013893720759699433,9.764975771742513,0.016785587086817787,0.012834141420566575,0.012562380263756737
3.38,0.1210728025019897,0.20427409839432645,9.733992397133887,-0.0026885479836348037,0.021625205610694104,-0.031225785050631727
3.39,0.0019140052700263213,-0.11803264408787176,9.77399486174369,0.008547703617854443,0.006546746939042783,0.0019332631844403497
3.4,0.03860296525325552,-0.2757343703040017,9.816005420022815,0.036193959218583364,-0.0036808814194662616,0.010676543706835337
3.41,-0.029824377655882753,0.1327770426479029,9.622449511263262,0.023805448523368272,0.012810768344675824,0.0014803395339738742
3.42,0.3344604696145862,0.09021051608675121,9.9783390657091,-0.013614736129740339,0.02613348444912817,0.007165231765361483
3.43,0.03853091998622017,-0.359681628586945,9.664364683163962,0.035758477553843704,0.008796049018242753,-0.004610422273205906
3.44,0.20627962099592465,-0.45921071768323746,9.745903427056819,-0.015640343319585283,-0.0038410468120677185,-0.006058083585225474
3.45,0.1199314450819112,0.07577697540099274,9.603422685522048,-0.0005442601028695301,-0.0066268167579424785,0.030967677629921364
3.46,-0.023269407298167642,-0.09586117689890447,9.884281957963255,0.045812282915262105,-0.003200245550680878,0.033449964594112584
3.47,0.09076502340598047,-0.23308025731101253,9.87067347788601,0.04310409460533137,-0.01183405751715037,-0.010746532728991471
3.48,0.1941172716175346,0.17922807302709978,9.582652215599005,0.01919542903559786,-0.011216136975412332,-0.001443842221644554
3.49,-0.0405193659297471,0.3879910783508608,10.061251068994276,0.023796217002575594,0.025015570673188017,0.009953131871464741
3.5,0.1396441231949709,-0.03866691687267845,9.647860329442887,-0.04658738134023149,-0.01945379932828646,0.024312277601424324
3.51,-0.34627185046030023,-0.2396016419379448,10.140845480097964,-0.014123869577792856,0.029009916678387426,0.0060320979496369075
3.52,0.06468896562362933,-0.09000773370209701,10.073248396303757,0.0158062020335304,0.005175086341959623,-0.024986289541468667
3.5300000000000002,-0.07821395744191266,-0.04654523248171668,9.87775163239955,0.016454014096318356,0.018102308944181564,-0.03116523660655298
3.54,0.06232843999806588,0.1518691525040525,9.467800235194778,0.001017946539813263,-0.00290833650878982,-0.00043543571998998595
3.55,-0.0479478089631271,-0.11855053217601086,9.74402525155921,0.021129791065228415,-0.004418016467543521,-0.03474946035617653
3.56,0.11558648484876118,0.03825229745619487,9.712190334200749,-0.0037283000984699942,-0.004746192519869344,0.021681860351020724
3.5700000000000003,-0.4616480967650379,-0.050013408878055395,9.697507697725317,0.02554568081141338,0.01624983622247826,0.025340977647499492
3.58,-0.0522172828612951,0.021195145763861913,9.801572867866795,-0.010873781636113721,0.014467524892750749,-0.002442380465948458
3.59,-0.18692617603263195,-0.1848514377412818,9.625302859522177,0.03321465684620453,-0.02119051065481991,0.015678435512093043
3.6,-0.13540039646617585,0.017644292357237797,9.777904568335817,-0.013547806592895674,0.006700992951203478,-0.06070359461212952
3.61,0.31807554402240057,0.3239741549400415,9.53920695170443,-0.0016144343649962978,0.007216147159359817,0.009765474931050337
3.62,-0.350285590146053,0.05293828017429872,9.826652695008603,0.02701073957560266,-0.06455975975792293,0.007000851011462864
3.63,-0.21921990568165448,0.014664643282983756,9.832433605973682,-0.008125177458125884,0.019726740892418687,0.007844495798348453
3.64,-0.07239843136914756,-0.18949727870497665,9.921805722646845,-0.040767496528223424,-0.00853603374890338,0.0007068074686629932
3.65,-0.25319914502962454,0.3174659002475847,9.982603142098164,-0.019947228158125125,-0.02791615821988962,0.03171590478817475
3.66,-0.06840853708420658,0.22994462390430026,9.675452311116175,-0.011048020363839832,-0.017408739760840838,-0.0322202212749215
3.67,-0.2897837874304474,0.28220883013909887,9.800441934409315,0.0034659437907301922,-0.017147365334930477,-0.03143817732264937
3.68,-0.26870911199857894,-0.13639541242030284,10.05338328737462,-0.022225204977092454,0.003843076819006121,0.02313876491629427
3.69,-0.011958233393299614,0.3227691869443828,9.666009048965336,0.03491671814753563,0.008709803439719346,-0.00844665250402209
3.7,0.5183980464250264,0.29540349073011063,9.602239351775047,0.010174437020085293,0.014422891767177204,0.0027807630232396753
3.71,-0.06384770126780373,-0.024455527885903123,9.6446362002207,0.012593320318968974,0.01570669068881289,0.003515862014002341
3.72,0.17336283033936176,-0.0656138506050677,9.78814429720754,-0.02556170908686111,-0.018222584805688828,0.01795835050157232
3.73,0.08102650936836862,-0.2398612570872306,9.472669392128308,0.006627647345286494,0.007841874874085716,-0.03125102255334428
3.74,-0.05076622754975965,-0.12120727060146134,9.726577182262133,0.00019780027626008313,-0.023118982818861,-0.000946847571084298
3.75,0.2793778714561394,-0.14390146057835282,9.64210305505531,-0.005503110428029986,-0.011400734753723177,0.025228758608306916
3.76,-0.12375735510231167,-0.03207647519217866,9.809123251396136,-0.011705835547786939,-0.017607316602455222,-0.00721849982204471
3.77,-0.14047322849219898,-0.11541975579198803,9.986711894181397,-0.003142169181085708,-0.016664043873673304,-0.014862265844772888
3.7800000000000002,0.07048844181125158,0.20846621804249763,9.704145145310465,-0.0009806561189113347,-0.008895521194205834,-0.00908924750684992
3.79,-0.20826420401353596,0.2279737564849521,9.410322376333923,0.01707141528835087,0.01961966178270842,-0.007832871896760662
3.8,-0.3449275101225667,0.039383514846647975,9.72784551868895,0.011725179197369567,-0.004317725893999829,-0.019159710828318008
3.81,0.2972087984003206,0.05691710291584199,10.111379456131832,-0.008140969668364811,-0.026204112509104198,-0.01141740499695312
3.8200000000000003,0.09170821091746799,-0.043384178753662246,9.419477008499504,-0.02039131020352686,0.009271163399634371,-0.01495504429175364
3.83,-0.1260417283060947,-0.08178082066849011,9.727389701890596,-0.008264525512347807,0.03300121957768886,-0.03553703073676417
3.84,-0.20468839808036934,0.36944856140242127,9.644723325720346,-0.03924504536455875,0.018823806155514787,-0.02571142741600951
3.85,-0.05073659038877387,0.0471002242101164,9.418358067619398,0.022377803165108196,-0.016626612282147058,-0.0025447897333988373
3.8600000000000003,0.011587850418500635,0.010649422717311098,9.974292512592362,0.015931078345214403,0.018107541052983896,0.0006017545987604841
3.87,0.03314781779976516,-0.06298164866228584,9.858646997123818,-0.035751502897065766,-0.012992494633331393,-0.022630379403007765
3.88,0.08528978255520915,0.3283554127430902,9.895021220835769,-0.016211879808584496,0.0029724006323012093,0.0004045187422021516
3.89,0.0670579397228827,0.18302580913025518,10.005068875555983,-0.019343139648457682,0.02272450405353746,0.03696578451235995
3.9,-0.07676801536163444,-0.025114334224708275,9.94047831365998,-0.0223124003871232,-0.005886169648600428,0.01595460831133488
3.91,-0.08746948314075466,0.15310279640277982,9.718299002540824,-0.00515968320214678,-0.004267492357909313,0.025258013659572122
3.92,0.0962467278735927,-0.10245242809582505,9.453717983416476,0.015968384199648272,-0.012474420634308075,0.006461156120909645
3.93,-0.010529345529168146,-0.12281441253937293,9.605036797849342,-0.05544370729187684,0.04163418064807331,-0.033377758221304454
3.94,-0.07088072708429596,0.10724886476967013,10.042973726265899,-0.0037542263870124462,0.013366646374397717,-0.028327655152214866
3.95,0.1027669326738806,0.044429728795464335,10.08929971478104,-0.013335662445216235,0.005646706591958867,0.003438811010875349
3.96,0.18401799903777624,-0.0741119311703082,10.020040870759315,-0.013630807721680658,0.009197738056590637,-0.01878301702423695
3.97,-0.0519052590886613,-0.2020526843068528,9.871947974482902,0.00946808562334316,0.01710272545737338,0.027113353939152977
3.98,-0.41696242213239215,-0.08198880292033835,9.916186363466036,0.0454439666750715,-0.01774208041026652,0.02656237375720602
3.99,0.06093807383057256,-0.3453287254516856,9.865982082569884,0.027231076766097276,-0.025983173202125148,-0.012811907153668785
4.0,-0.3686651580733706,0.17675358091115753,9.417928886128646,-0.002505942465549977,0.011899462093258609,-0.0022341454666921956
4.01,-0.25608265995449675,-0.16627474275675597,9.912335359894733,0.054941657871387044,0.015516990526824155,-0.04094244494790226
4.02,0.10082429358973034,-0.09484866607642968,9.57796506685023,0.010538180121894414,-0.0003798072217042893,-0.04173209485522067
4.03,-0.31993979662291194,0.23738444284073618,9.99778892788864,0.009388406274707979,-0.006278349377874871,-0.004364226034550784
4.04,0.07974458255215588,-0.20415393977597276,9.833333746707561,-0.022398477146619418,0.007913771686642595,0.014518203210435777
4.05,0.2323735037238236,0.18283136177180198,9.651570755348503,-0.03435553637071863,-0.009359298066839621,-0.00836971004313981
4.06,0.14079674759450234,-0.06536747179624051,9.888948645241305,-0.020687811261120195,0.006903567608674156,0.008639538419075833
4.07,-0.3546280209954602,-0.1641965463859993,9.695029818132289,0.01580827962141749,0.013477445976500016,0.010157315917588087
4.08,0.05572953321179546,-0.1066515152383282,9.73859545454141,-0.023230879588515867,0.018540195019743612,0.014739086370170943
4.09,0.17256442635075392,0.05380208846381144,9.723583202300293,0.01516279652821303,-0.009075387544847276,0.02652917937802827
4.1,0.11133017845613948,-0.17576879101159412,9.725570365263737,0.0030151190469352553,0.03285931443583557,-0.004151134009125473
4.11,0.04405920872112755,-0.04473636003799946,10.042996114577441,-0.009133549029315574,0.0023049640941433616,-0.0046414024719537
4.12,-0.1358176110225697,-0.0407340668614559,10.117370823829667,-0.014756057924779006,-0.0248530457133475,-0.021836506048814645
4.13,-0.06221514072516218,0.02077345181708896,10.086301294289335,0.04057917847157343,-0.0023546760473983426,-0.00751606577846907
4.14,-0.09849395957998092,-0.342317214174423,9.65980622866325,0.024283197780195484,-0.002168561962721572,-0.03012561163925704
4.15,-0.049330893670331465,-0.17885750167323347,9.702239208947699,-0.011407039337982008,0.03174358217384554,-0.010972262235133255
4.16,0.0837700365597997,0.07084001858547649,10.074713158390743,0.02540500604239499,0.013645051217997178,0.00853176970724552
4.17,0.13949490203159096,-0.17021912478420345,9.76703219887414,0.004676490783319862,-0.01473567711098317,0.00894681774482728
4.18,-0.07522646181077453,0.0390385849566065,9.650918259228243,-0.014841023262299137,0.011565413962166012,0.01012710076008114
4.19,0.22961157812395944,-0.04282469801782636,9.913389086402209,0.011909998131777837,-0.017237991425368995,-0.018981202886949183
4.2,0.08711638719634555,0.019016846921732368,9.804651810913532,0.035789091395022704,-0.019127031545182055,0.03687805932581484
4.21,0.05093371631597173,-0.03517024272327418,9.632432428109178,0.0018376538841055302,0.007555320298102899,-0.00854584408741526
4.22,-0.0962384832607799,0.14715761437612132,10.025463828109448,0.000639164109277016,0.016714717814117045,-0.008986642251556126
4.23,-0.28913931235876333,0.1292917747574013,10.086482219688433,-0.011569262559516423,0.011910002080169228,-0.02422500710811914
4.24,-0.26251819195843534,0.03292310903395576,9.775475139425541,0.0027037734389377295,0.025304207547243208,-0.012922601145579185
4.25,-0.37414153735671224,0.26582156395322815,9.835940724006655,0.01201130354614042,0.0013470086746071254,0.010692523546537842
4.26,0.003574929991868747,-0.15480356323117653,9.512952991234926,0.0022042571886327794,0.009567980520095973,-0.004936295925006198
4.27,0.13027999666962545,-0.19644904290715648,9.878579411498182,0.005932301504931344,-0.013926803279799616,-0.017132766245717305
4.28,0.116039906370231,-0.20818836200176521,9.698174675849062,0.018525188970727188,-0.008369722798712361,-0.005381597308873396
4.29,0.08527412590954082,-0.19513909815957903,9.74984968202994,-0.017099669297068555,-0.045312976658921464,-0.01064685360121105
4.3,-0.02894342881440912,0.3360676452236447,9.663144418152969,-0.026719285454538413,0.012012876934611384,-0.005322153600880612
4.31,0.16991150310335004,0.029067948608318437,9.981174468753075,-0.006718098612599368,-0.005929704295630646,0.028363253219410207
4.32,-0.08852346445423565,0.16568766746032434,9.638079146485065,0.012014665142261858,0.0016105651127488096,-0.023371784760798816
4.33,0.06227347195552724,0.03508765852130112,9.755258951739071,0.03258208699674319,0.01532340515878212,-0.016572198762369914
4.34,0.050473185163648064,-0.06553379699016146,9.734956977594278,-0.003878768253317912,-0.009248568644577468,0.00312418266506567
4.35,-0.08147157077943719,-0.3429840179892405,10.075543066519241,0.010372861105394536,-0.0322890094330284,0.013929326154414579
4.36,0.1982273764599804,-0.11429425659128396,9.711258182773982,0.03940214807804734,0.0037767671721229026,0.017134790725190405
4.37,-0.33801876806162756,-0.03453856887314536,9.804898420259988,0.021346295190574953,0.03628983591884693,-0.020595087472487218
4.38,-0.05458982727655391,-0.20895851419582645,9.75370744339163,-0.009933095720602761,0.024040189945656338,-0.020144944896351543
4.39,0.0028749890852030435,0.016668126154945714,9.63257031720377,0.0032482990164579553,0.023064979369693112,0.003435503644610638
4.4,-0.04775127053179319,-0.2813495913796547,9.921272539873284,-0.007205714033674042,-0.010329370010321796,-0.00467152106216427
4.41,-0.2124011694127419,0.06381679777489559,9.89477594058622,-0.002192606064202981,0.027868629009321057,-0.006314488138526604
4.42,0.17311821126460752,-0.16097360532957336,10.119438284772382,-0.010964579335883223,0.016686028161901206,-0.01105795387583477
4.43,0.12043568142443406,0.09197193941494815,9.623545186918733,0.006383953825577139,0.008888680630041562,-0.036448464350094044
4.44,-0.17686164446526442,-0.17041584133496243,9.733829208954427,0.03759280455746224,-0.013564694509582191,-0.0026532873532022377
4.45,0.23899312486072932,-0.04652492650877077,10.085594932980442,0.02435205159632358,0.016208656667310445,0.026443665250908795
4.46,-0.17074706793645772,-0.014667642769340211,9.86404345470882,-0.005232533710219189,-0.030688618702108095,-3.610454287217407e-05
4.47,-0.06449741585969797,-0.038090711551448136,9.810235931116027,-0.006124352438066647,-0.02070166012713451,-0.025308744665027205
4.48,-0.09468303205131025,0.29993719357360216,9.839799626507649,0.015454903073126363,0.003832584603521688,-0.016495326280334052
4.49,0.2266990071451608,0.08832890583431145,9.63939311444815,-0.013344885389968307,-0.021120436251169633,0.024069147864907468
4.5,0.0872541132836174,-0.1516688968133247,9.63768610110938,-0.008134466613056373,-0.0006957666623549152,-0.022297220747373562
4.51,-0.08971347113194177,0.007306243392121558,9.758118919938065,-0.03287119904196392,0.01285558453898057,-0.014624536022051835
4.52,-0.09227133298503822,-0.031214421151841875,9.814822448695049,-0.014107090750812443,0.04161779501724804,-0.0024066261577243633
4.53,-0.10152135915328257,0.04517167012484054,9.78991226247901,0.0373234211624675,-0.02362881898042614,-0.003205975285238489
4.54,-0.18184436421592623,0.15238083046191375,9.792150738373318,0.026241521188373525,-0.001317228109624358,-0.012405191372123273
4.55,0.17487788321747547,0.1328299686722299,9.976555523955744,-0.003399350720691637,0.018821891803748242,-0.012696412062076593
4.5600000000000005,0.2203216730355648,-0.04744607465076646,9.871884308654353,0.01041439859229617,-0.015444973147500374,-0.032772081665679804
4.57,-0.27012147926705765,-0.20500181541175938,9.409860501039486,0.012284193167556726,0.04377083490526265,-0.013766342015815414
4.58,0.08747415104277168,-0.12680824051059372,9.708226010149653,0.03466851624835445,-0.01779790732960195,0.0016148387564131038
4.59,0.09436796583781272,-0.24299421041283648,9.739081907144755,0.0002933221307702969,0.001154589907848418,0.005736180674277375
4.6,-0.05956911851529855,0.4937001937424448,9.56008389378887,-0.014551821315209646,0.009476310719563908,-0.02636708925860934
4.61,0.038697756850520154,-0.029513540859734403,9.881821293209443,0.019161964551952453,-0.0027559194939252647,-0.0063716197678399525
4.62,-0.2296492995866753,-0.2900567640630227,9.594647127878767,-0.005877384079509007,-0.001803626196078105,0.023687436222576956
4.63,-0.2041358678078717,0.1548517091104075,9.800234373594384,-0.013903283232027866,0.005447568356831168,-0.019102832834687368
4.64,-0.037975317625264154,-0.007883500324285572,9.58191931844261,-0.011080823628860011,0.008355634371702307,0.004755269786463493
4.65,-0.03676821140187824,-0.19409153248952446,9.756001575562758,-0.007745597901412434,0.006025574118594641,0.008209239638846825
4.66,0.4511912884832678,-0.07007394987306273,9.773272982748445,-0.0016994070728188408,-0.009959883574290824,-0.003644187260018129
4.67,-0.15782288191602006,-0.18206848360354452,9.77866326825869,0.030864243079252198,-0.018420117544667297,0.014351410032611712
4.68,0.2516079795666339,-0.14532156778158142,9.779494060026314,0.019093100648912502,-0.019114412415300742,0.010059788319474874
4.69,0.34991244127288385,-0.1452305419049307,9.87571770734205,0.015995313035723872,0.0057483925660457005,-0.004660609675648536
4.7,0.2756747707990762,-0.20374534408463194,10.179486971790432,-0.006254077291530954,-0.006429156872659304,-0.00541780270999128
4.71,0.15833486110793646,-0.0658842505214705,9.845974329755705,-0.01794779507576905,-0.026390744927476728,-0.006829009225476535
4.72,0.009734482149360884,-0.04148225818150264,9.745801671555562,-0.02632068291670391,-0.003966891753523709,0.0067661044742691094
4.73,0.10179143014927144,-0.23042550549952612,9.856390606262623,0.02748478555898735,-0.010667968554731812,-0.015410987456590872
4.74,0.12604960386585257,-0.1736756831023563,9.911211387414165,0.010327025066565599,0.01233687899578289,-0.026708503170389343
4.75,0.0716747268416552,-0.16509526274668704,9.423451223230751,-0.02393364235571194,-0.015417500237683922,0.0019074987949199052
4.76,-0.2270911175364293,-0.1284400479788125,9.827277305948876,-0.01867111352710998,-0.01416662939810586,-0.005219129351728345
4.77,-0.1617942846430429,0.01195509662720026,9.691958036530753,-0.005190724890592147,0.041094324270225795,0.03881582900942644
4.78,-0.052886334556621326,-0.15233231005772796,9.762042373441098,0.024977251157027633,0.003107988719753277,0.006705763385522971
4.79,0.13185287027376213,-0.039947208170712296,10.157135529191224,-0.004584642067116015,-0.005635205136496836,-0.010237295700866065
4.8,0.11823486160200784,-0.054397029207533164,9.528554695733748,0.018828220276855892,-0.010530667286335227,0.0034616876003595895
4.8100000000000005,0.2320451383587818,0.2348257460137609,9.919218940456352,-0.03049690820601123,0.00747362030931931,-0.01896846480633677
4.82,0.12297322051184527,0.21468351074907155,9.718836085966167,0.01247648288595445,-0.01762453511056084,-0.004582510535638397
4.83,0.028938998051639953,-0.08359014979081426,9.467983232089596,-0.025028901272331112,-0.011796851085522704,0.004032602807603757
4.84,0.1050018072893619,-0.20010286079862005,9.710255491201384,0.03041413337131627,0.0024300302863717277,-0.007245384649637199
4.85,-0.25544052192190536,0.12501478534589425,10.054319919332787,-0.010413052926992902,0.007373005403881931,-0.043444732247686746
4.86,-0.043150362569671696,0.3388474368367058,9.708611969277149,0.017266514794564685,-0.02589091302677526,-0.011789556815880474
4.87,-0.42107511640094,-0.03253283164244367,9.762704610767651,0.0027853413538098865,-0.0015957827748056216,0.002162434040143395
4.88,-0.06586357961869081,-0.04577516237289568,9.814969448713985,-0.00852963951301977,0.022402111563763566,-0.002198366994310625
4.89,0.07157478396751121,-0.04091705083048676,9.555788464157162,-0.0254411628674457,0.01626900958375185,-0.013161350895372624
4.9,0.17504478518322103,-0.2252147780037455,9.784767744680833,-0.016091075869455983,0.01762876076061097,0.00291239321173926
4.91,0.1723452727743325,-0.05864876787039482,9.742441416836028,-0.015354014884062897,-0.014142288956943774,0.01385004003640935
4.92,0.05002311368742769,0.07069020951743189,9.893638395282737,0.006844007427774939,0.024861376210788967,0.0011296804888437284
4.93,0.006004925590302583,0.22133601319857496,10.044450874795933,0.009166545729284206,0.023554249611663716,-0.025159773468778616
4.94,-0.2596294519352334,-0.21005734592792577,9.758062236892538,0.049551724520693625,0.004702205296745477,0.016539070485458947
4.95,-0.07028591425624053,-0.10694177461598818,10.040944920216825,0.02979035478419085,0.017265792535336565,-0.00414151693407437
4.96,-0.432766587167159,0.0022752689927017854,10.040634686894709,-0.022157752888580712,-0.03119302922078331,0.012865196632153842
4.97,0.028812464547686385,-0.11043756011286165,9.631213209685829,-0.009539534801152993,-0.011413573092222074,0.022848837572578117
4.98,0.02802157047824888,-0.19698838415484776,10.063642576337172,-0.00864134268767995,0.004851823364217412,-0.04142613437244398
4.99,-0.022398827868051488,-0.2666063417103669,9.820170696500789,-0.016892311719008308,-0.0030140217157295524,-0.009632896502424567
5.0,-0.17712226679725093,-0.09942865595856161,9.64540717956673,0.001858058539952961,0.018439052338131146,0.020668336032155798
5.01,-0.08138637410785748,-0.1333837561067894,9.78562901222602,0.00960317917657004,-0.01930220271703895,0.0002610486752420587
5.02,-0.26439569954688374,0.04254507906682829,9.83045330624178,-0.0065072354842449585,0.01500916230608969,0.03811467178215085
5.03,-0.22937913564326268,0.24607776047489952,9.701821147428355,0.03181188646269028,-0.00014222724222424693,-0.01720160259107568
5.04,0.19278992786941285,-0.0887029420122187,9.774740747431713,0.013852509840307163,0.0018302917495244015,0.029688992864225862
5.05,-0.012763451767710269,-0.14871988192969948,9.90587142239567,0.024267596681933803,0.02685262015941159,0.02814584761813443
5.06,-0.237842237991509,-0.1508594771462249,9.789310336206777,0.012897598666674389,0.02614960111218299,-0.01578163489956615
5.07,0.22482887195825776,-0.20872550325236808,9.626950277382317,-0.04213842294684885,0.01179682327648337,0.036858046037303395
5.08,-0.07794194949410622,-0.05568796644273273,9.461540389073624,-0.011180831061645415,-0.014136708568692613,0.014941610636538967
5.09,0.030179989880177865,-0.0979285553921932,9.862206162628384,0.004894035705817797,-0.027571060648414494,0.0074515998079334005
5.1,-0.005331274395009642,-0.03689936616184704,9.645602696750265,0.02078348285617025,0.017834246417901357,0.03583563190803008
5.11,0.3924737747979809,-0.05264345434048652,9.467656734330644,0.04794361159324114,0.004185909416326551,-0.0004769999674091438
5.12,-0.11668580977959418,0.2075418829924972,10.103281064121838,-0.01161264316876432,0.014274332527978559,-0.000130867041117355
5.13,-0.002273171939679536,0.0074986090311705035,9.806546590861453,-0.012075953141138192,-0.01562604975389192,0.01100400908005439
5.14,-0.18776763896133022,0.09309025142035778,9.886377467983856,-0.04816492664232103,-0.035268280367142614,0.023946311467521273
5.15,0.2941166908844414,0.08909005863803329,9.647393224264434,-0.03893392132240464,0.001920114724547228,0.025990387990802343
5.16,-0.053392001298538425,0.0658047097080432,9.88804158142694,0.02324827373908381,-0.012906923371444293,0.0031269712621973663
5.17,-0.12900990965793105,-0.025454353668020385,9.632916554611,0.009385342761115963,-0.01397011374466747,0.031567207652652945
5.18,-0.20835418605512618,-0.05833989253233046,9.862255421297585,-0.012519881757383002,0.0053731319036849955,-0.02257442275141678
5.19,-0.07654500683399049,-0.12466552901497353,9.785550378660522,0.04187788395747079,0.0060531227555499206,5.3455000185598934e-05
5.2,0.0859725359363592,-0.05437168032171458,9.492425130781953,-0.000474936650252081,0.03362039833212921,-0.01309323516444585
5.21,0.20262006881259018,-0.50618901443581,9.816985077304343,0.013864280739926557,0.00671658354393715,0.004344288674846132
5.22,-0.2527245288642044,0.026103291649070454,9.914631336614452,-0.007461195916043685,-0.02910744670140939,-0.00699787218490703
5.23,0.12411197832496673,0.21001169207035375,10.0900496981289,-0.01701481347178963,-0.018396283998490463,0.009746678081821218
5.24,0.00995948456273525,-0.027555319251670974,9.782735037913483,-0.0164822267627401,0.0023344478969045974,0.031422739685743745
5.25,-0.22292090761776023,-0.37927452940061773,9.981001910101478,0.01304176986709801,-0.01271368993138486,0.04547533728750477
5.26,-0.27256630394367576,0.24788839941975563,9.868357305202919,0.020691499120604025,-0.01934345074717224,0.0032471738224592547
5.27,-0.253174480877603,0.17074593467678092,9.849189232132817,-0.022873625633511026,0.019769550028457684,-0.012587046562240346
5.28,-0.28897872353211,-0.08832149645024923,9.502154743980817,-0.01718110701999774,0.024624874792023237,-0.06238912167744601
5.29,0.16685093381498423,-0.006289439982735103,9.934180286066054,-0.010790808093966266,0.005487952497600308,0.014614952234833015
5.3,0.4607901453205862,0.17812279652937574,9.609825467425548,-0.01584151285812644,-0.0030751936607032655,-0.008339796627617378
5.31,-0.07590254278022594,0.0911713089147461,9.66866302023707,-0.007532255342094064,0.024398188141456893,-0.0013844972820843961
5.32,0.04134579701354997,0.1581652661420075,9.549447208328834,-0.0022440815565281137,-0.013656250437188782,0.020559235776913647
5.33,-0.039821110928843266,-0.060300845619950826,9.55782035936318,0.03216485368657351,0.037460136654219454,-0.005473029175734372
5.34,0.11715364429773831,-0.0020265174491658337,9.733325415601795,-0.019429179534128406,0.016593674541869906,0.010982730622851176
5.35,0.01215635246736667,0.10638238990502442,9.878076400259625,0.01999382224135187,0.017886144902664113,-0.00366334265783116
5.36,0.18797143943872374,-0.07871515193082841,9.936608031975627,-0.01987057923625526,-0.01628746761896332,-0.032546959600950796
5.37,-0.3007899442101865,0.07254832052808013,10.110762400808321,0.03649570553770875,-0.035824001873459715,-0.03528266716800956
5.38,0.0699319006976151,-0.029156465201892964,9.924300099876165,0.02946965366620204,-0.006439693798524278,0.01624593897554778
5.39,-0.045494101200726715,0.006395986614559931,9.808362327884929,-0.03513093103550602,0.0002805263575487879,-0.02521722214659658
5.4,-0.020188838592838793,0.11215640100522543,9.754876283457355,-0.012477428840981854,0.025521084497571813,0.04210458286931679
5.41,0.21956901173721227,-0.19123046772582875,9.624878144821599,0.01412221029619544,-0.009813587344952341,-0.001992139642542141
5.42,-0.21529951956810872,-0.0514071105453595,10.099138358958085,-0.005586814802489765,-0.012691725930766487,0.010589490305606334
5.43,0.1500628520400387,0.003782149038202379,9.457437915284562,-0.0031312453348715475,-0.01583744012693969,-0.03611011708766462
5.44,0.07456617701966811,0.12771355893942624,10.177483402059217,-0.0014438747266331037,0.007867913656416457,0.008827927853177873
5.45,0.03233797272654158,-0.07246215877646356,9.713805768120434,0.019378062971021248,0.022255206355844225,-0.019656607098102893
5.46,-0.025729585870160002,-0.027571623295531558,9.835305434620732,-0.038379611240787086,-0.011390519325913655,0.011122673231215456
5.47,-0.2761533294393238,0.008624120014148428,10.034647285469543,-0.015502101701773987,0.006356277208742001,-0.002930722720695202
5.48,-0.022718840825802316,-0.001384314034383942,9.785005539099133,0.004671039610630893,0.022995834468917346,0.028700955211157834
5.49,0.08837738656994136,-0.07906581961317956,9.950604903392033,0.008004672574028118,0.020990565389891577,-0.02696927903435033
5.5,-0.03735817622445706,0.11689095314091734,9.846903026879543,0.0027770275539614453,0.0195385379617491,0.007339787486096362
5.51,-0.32238111519341706,0.2110241435075102,9.934177206889027,-0.011409356961516426,-0.00898326523466572,-0.03149523787537738
5.52,-0.001417606698038512,-0.048558147431093296,9.888852520278823,0.010084993347907065,-0.01705749452582297,0.02164889388401497
5.53,-0.10592742204337814,-0.2220834614956713,9.733647029752987,-0.03305898629236287,0.026155300167388044,-0.016405674283407234
5.54,-0.024065156670950435,0.050689223430051604,9.518883876031639,0.03262121142087214,-0.008274233748627331,-0.004113567313882744
5.55,-0.2229779496827538,-0.11873963409877099,9.636182538144476,0.010977011133317465,0.010352776015957335,0.018050416672620126
5.5600000000000005,0.024776684877936477,0.023456877238198445,9.768192157401398,0.005939551290280016,0.010597729944175736,0.021652526668889057
5.57,0.23143263598308744,-0.11145803875949009,9.687704914846378,0.021599450975703344,0.005965745468254095,0.012311054680006522
5.58,-0.11559535537832615,0.3441067458160519,9.70427016558403,-0.006943283270030635,0.02737527945489873,-0.03450725020807577
5.59,0.14460119300784274,0.1282203083100679,9.747508465102985,-0.022273785145116652,-0.02030560963222952,-0.008263031554051567
5.6,0.06042267679122269,-0.31942045195931534,9.890151827878253,0.015255663473092354,-0.051015642829111675,-0.012842183336207147
5.61,-0.449680472502387,0.08242668106770597,9.461921304519251,-0.018528714581998867,0.004137452939313231,-0.03523604789244425
5.62,-0.042078311821964844,0.0984303775545014,9.753655062014877,0.0014292621001722684,-6.684124008788096e-05,0.01853920278809719
5.63,0.24065707747625867,-0.08482708795897502,9.926758464777386,0.004934157671567855,-0.023422194721352173,0.010539050637433002
5.64,0.1267559724286272,0.04832318916290223,9.955566690373509,-0.024718521750466352,-0.02465584785850202,-0.01602535406779842
5.65,0.12812234322153312,0.08906372369252868,9.707029539225388,-0.037531666001244475,-0.006894099348045483,0.022972747224969975
5.66,-0.131659767038889,-0.004810729262609655,9.774209734207679,-0.0013442897891852645,0.024771059161766806,0.001141206564600307
5.67,0.11193109422018356,-0.04017830844701298,10.05434149315518,-0.010983742886998467,0.048039726631912145,0.0004274464294756482
5.68,0.06817091688790017,0.03359209725298003,9.70725467902935,0.012575382573792157,0.01211875919533324,-0.02173087195851518
5.69,-0.16706588149035098,-0.04732835806203806,9.9420152983274,-0.009033829180958682,0.012955272136163811,0.03144638359161438
5.7,-0.09415365142296468,-0.12541763670746658,9.691050936877721,-0.06248215691575637,0.027644364791997295,-0.006762302709674758
5.71,-0.35401637861610574,0.12255990960187546,9.40829777875892,-0.0007652264214306426,-0.012822610946347351,0.0022847800919003204
5.72,-0.04580333858230273,-0.24049622063354092,9.549102587347203,0.021652255847377733,-0.012036134804591921,-0.07035500165130566
5.73,0.14500459592005815,-0.16515163197606536,9.66016059753129,-0.023346836737026647,0.03484188814642562,-0.00106495045059563
5.74,0.11650005857687418,-0.14408358240177008,9.853910978941654,-0.009509498570316062,-0.0054638046024762165,0.0012010143873664827
5.75,-0.11343666177678681,0.12838164844025896,9.85805289143158,0.011283041255247594,-0.023237302828038216,-0.018759036237026162
5.76,0.052018260054561435,0.3120423662294841,9.855908545427397,-0.009009419425374232,-0.005639097677156321,0.010879557240204086
5.77,-0.011248827305194015,0.2188177957425935,9.87824446100476,-0.04211306525693412,-0.017090276867802782,0.005858229198370787
5.78,-0.1364819714326858,-0.02596963247054811,9.924427021044213,0.004335081048642442,0.026602569500409918,0.03349920368707447
5.79,0.04281260588648019,-0.1893918547273037,9.937740589388167,0.04391276901771236,-0.028975267828332513,-0.019032893802529535
5.8,0.12413043236643843,0.07648978389180353,9.756809304563118,0.011927286529013406,0.008895658569470262,-0.018623816269782326
5.8100000000000005,-0.13302898767145965,0.18132495932809764,9.776660988163336,0.01508150997080871,-0.026947438118558337,-0.023669935516935782
5.82,0.1627029266390273,0.05886810894213785,9.715058224696982,0.008352692789714235,0.011712833334119177,0.029741735127937634
5.83,-0.031428310652059595,-0.11508492102580266,9.951378534376756,0.014087216839531496,0.012928440583007308,-0.0016185131405293182
5.84,0.011741733435999857,0.09876510437240821,9.588797543141165,-0.012142160363440343,-0.017067132369133497,-0.02358278903885649
5.85,0.04513648512588657,-0.19358322304968514,10.249540102577985,0.010132950541971518,-0.01090234234943931,-0.013070007557632796
5.86,0.13708742570519636,-0.33127582399294997,9.975439673158466,-0.003169806348765835,0.004098853550872853,-0.009445667232599429
5.87,0.04115111430629409,-0.0477605477738331,9.679111930893987,0.017134566128506536,0.008705013703928748,-0.020442580648305893
5.88,0.0669399234225626,-0.23264924576151397,9.654466902619008,-0.004860983149528976,0.018211803858012503,-0.04574827650087143
5.89,0.09676676072963365,0.22322594104609808,9.629557897555458,-0.007353930660048305,-0.010741688828197593,0.0018899041238987072
5.9,-0.19059278204199767,0.1339575294985268,10.17269497800193,-0.011864805628195352,0.016105947405494786,-0.029039941427038286
5.91,0.09186781003493823,-0.037382443032926344,10.13159898475484,-0.03529777518379517,0.018947445379056155,-0.0014368658932110351
5.92,-0.17056967476233137,-0.30409450300923746,9.679300799228479,-0.022620740946074788,0.01898929303959711,0.011840652457188601
5.93,0.1781803543680816,-0.08805801207406712,9.798684091090553,-0.012566672592199499,0.023589876041557753,-0.02014042856446047
5.94,-0.015260479532721478,0.1817108300369926,9.810761120198391,-0.021581773745408876,0.027161617526541094,-0.00881157583433506
5.95,-0.21610295218634598,0.25216915647427113,9.801910042794981,0.00012805110229951636,-0.01106678866969244,-0.010964700508870346
5.96,0.04076661064520792,0.023461533468369142,9.592212345899162,0.031923570217790014,0.023427963178844824,0.003626330278989889
5.97,0.1897044838623254,0.19268842730120556,9.588650701339175,0.0036243039924860714,-0.02077749469944948,-0.021148628609247044
5.98,-0.23458680539539034,0.06414254149623393,9.592361261688012,0.050450565805990534,-0.006821326336216578,-0.0017621660774446784
5.99,-0.20328103387998683,-0.006666564378307493,9.712367370087577,-0.024542833977880103,0.03219778387385889,-0.018486331772541883
6.0,0.39200429294219463,0.06694904261413062,9.543736347935777,-0.010753352895702577,-0.013198974260581435,-0.009545661566935697
6.01,0.033640773671753776,0.05839868564926076,9.87020534984147,0.006164674720102831,0.001981639372196925,0.057936102513437004
6.02,0.08636069718288121,0.11532036766715799,9.68833931574768,-0.024980041465795823,-0.0052910300535878845,-0.008500438041640131
6.03,0.20718443988591714,0.029795929328659265,9.926003911676307,-0.0041999909315009725,-0.010947287001796369,0.010390136322926133
6.04,0.23436148803478218,0.30513137023856707,9.597354608765865,0.013763297866401465,0.0032362530231762826,-0.023102006400506185
6.05,-0.35988083678954813,0.13286396341555384,9.659283297731022,-0.015831091880345753,-0.008450474972593316,0.0010388683117269826
6.06,0.2069936345021759,0.12433789258168393,9.748744733830058,-0.01243746688701536,-0.026456361899612885,0.009593591819645862
6.07,0.026986650769826835,-0.30632714695210794,9.861365889950461,0.03479680575225654,0.056551768484584354,0.009886944293475594
6.08,-0.1746937578339267,0.19560607499773178,9.911777362726873,0.013442478932562448,0.012585777922110993,-0.03123399436858099
6.09,-0.016936791191753144,-0.1475618175480839,9.706057351574113,0.008984342313198128,0.01683541451061833,-0.010928467606581086
6.1,-0.12466502861927013,0.04379918197768486,10.121579954281604,0.02662475340196076,0.012903717988593246,-0.02374863010532478
6.11,0.06449298450662279,-0.2418904686761946,9.580797247172574,0.031901655426991554,0.008510742248845604,0.0069677322478840925
6.12,-0.0823584639185465,-0.2604550915338452,9.753584155445976,-0.03536683566978503,0.018988606795247043,0.005511185057580611
6.13,0.0781397074464854,0.33760707759484193,9.812678188041152,-0.015644699488498642,-0.002356801559960496,0.012340292212237607
6.14,-0.22179224015213067,-0.024034778605927565,9.765662726221535,-0.012160968740726896,0.032163307423853024,-0.00906147237800842
6.15,0.39589662877213316,-0.3067180299633961,9.598648842789254,0.0127120393543297,0.015230936677816005,0.027235101003855514
6.16,-0.18876712203140733,0.08993440038848817,9.762615335842664,-0.01951402735276385,0.03037797462351353,-0.005133137713865533
6.17,0.1433129335084845,0.383599424645367,10.004274522746384,0.008852482244601716,0.05748433087403379,-0.02164510699393188
6.18,-0.21002570449720062,-0.07654150236833428,9.930129479961327,-0.0016105401615813817,0.01091428967891462,-0.011795584831684008
6.19,0.2626805005403352,-0.1763207777045222,9.86023693974886,0.009193798298532981,-0.009716032107403851,0.010666263696572165
6.2,-0.04532724809601705,-0.02611456966690566,9.633656573195102,-0.007206079422419071,-0.03958690723527935,0.003909109488242537
6.21,-0.06319989773107941,0.03734237832974516,10.051951701531829,0.00635091667363338,0.006424676893942401,0.024508153597910188
6.22,-0.08607247519348626,-0.0011904832976280377,9.622207016787138,-0.04421561381121309,-0.010948841915115373,0.006202170110195769
6.23,-0.11758701695143568,-0.22038425619205468,9.587090416281987,-0.005987614187599798,-0.006680254226074666,-0.01567345506302325
6.24,-0.155690096038551,0.028486322152315138,9.759573052841521,-0.008569573159847736,0.0007356702083155753,0.00627020158472419
6.25,-0.030177262364039482,0.08066819699823266,9.9513784959772,-0.003916555144889264,-0.028146306702602725,-0.017359045297402377
6.26,0.02948615679144505,0.04410986891959218,9.530235513571071,0.0022007370152816144,-0.007758808991005479,0.006736679998248269
6.27,0.2851145391839448,-0.052629401147016294,9.675240756573494,0.00033444066319177063,-0.028267665643328756,0.014551229916070624
6.28,0.14152915855503925,-0.0939331237622888,9.853616098789173,0.04194559654905871,0.0339332942213505,-0.04614310790093034
6.29,0.16450477872813252,-0.20341149051933047,9.646703738338937,0.00220497170119305,-0.008233878228841966,0.017960088131044792
6.3,-0.0767204101774717,0.015856092364008683,9.648704406986777,0.029844825182532807,0.01754549807191183,-0.02043394894033158
6.31,0.07349501379722212,0.1545616806866079,9.96870583076498,-0.014435374381537885,0.017503781604894766,0.017930570314387276
6.32,-0.05919812263882588,-0.02215911079221898,9.52034926311227,0.007190129650435141,-0.003959914243468516,0.02892311837022619
6.33,0.07790773513709674,-0.1585340986595146,9.443810096090768,0.0071202285923990085,0.028376368006843622,-0.0142853255960673
6.34,-0.043909740887693935,0.0591194762009547,9.653848717242093,0.0037815627181778085,-0.02061039066323127,-0.002932789702748388
6.35,-0.20145280040580152,0.0622234909176157,9.785923278131003,0.018792248028243533,-0.03410520233790133,0.017972993022474883
6.36,0.0849179919298071,-0.1871895830153125,9.89487688586557,0.023734091789576754,0.007891774468240149,-0.0027715727542560772
6.37,-0.0009890666133141653,-0.08410639190143546,9.63804336928002,0.01650304077324815,0.023704689243267626,-0.055542160340615876
6.38,-0.08765170965403578,0.3091344626556591,9.561567073001607,-0.04376623654183514,0.013819472381830483,-0.013552353621551844
6.39,-0.159128841924662,-0.12086575882322348,10.03990323204594,0.016228591664832613,0.031400580916540584,0.01942895082538215
6.4,0.1597691236568917,-0.14769378620907964,9.786765180418348,0.008231364349405504,0.024113821141955587,0.002774471001389923
6.41,-0.02979244930680364,-0.021875397277576026,9.708372432355658,0.0074909486222403355,0.01307476896214008,-0.02624288497470157
6.42,-0.34318130210181935,-0.10674682905354123,9.929594397714336,0.002801968647047163,0.019953735144271848,0.010413707415651464
6.43,-0.030013203729609424,-0.07554607891272287,9.840154793294445,-0.04783311131135542,-0.012690135190941148,-0.029093737709571684
6.44,0.02136099929583176,0.24797464266029717,9.800809265947267,-0.002978976599679804,0.03531063011359602,0.003908992877110502
6.45,-0.10894416547962918,-0.03219579278025311,9.840699455342728,-0.01881578022520108,0.011611490580149467,-0.0050294801502080355
6.46,-0.027653359817632037,-0.10953331119067894,9.848012009780051,0.02112932963073736,0.02791613600070886,0.034802317647875
6.47,0.06604901936686644,0.15315071600334493,9.288717715258299,0.020560899733512175,-0.003482829385342084,-0.010885456469045315
6.48,0.002152646232735616,-0.030171443198178702,9.749360448260282,0.013813996558640223,0.024665312794927143,-0.008865002002526103
6.49,-0.2414260697763964,-0.01962208100956235,9.801980478316496,-0.011152146186931378,-0.03388930200448058,-0.0067224165075946505
6.5,-0.20004873743750362,0.23259665757605247,9.872983240607981,0.006319851844746965,-0.018223902899880892,-0.0019585654477096187
6.51,0.13997535304977085,0.21586492326920942,9.974941662598457,-0.003936471968123811,-0.028436142380285735,-0.006186170856431964
6.52,0.2699874241472166,0.006129309211630623,9.685531824708407,-0.03850702040754638,0.0005448411379019297,0.0414575650030126
6.53,-0.40783974334512785,0.06320096273557842,9.995021093498304,0.007656239645789025,0.001980746772832317,0.020129197743731893
6.54,0.022544390526991916,-0.09876013779201662,9.742833306614171,0.023641076740971156,0.0007116173758154187,0.0036354721874134193
6.55,0.15491204835590872,0.1203073830906438,9.569460690665691,0.02287516333959273,-0.011834895430571127,-0.005985737334311918
6.5600000000000005,0.1712708027535186,0.0652571480128577,9.8741347001719,0.006344282856438608,-0.023991197849683808,0.021250661157717187
6.57,-0.2661847202178565,0.32433624480391143,9.605275395741042,0.012897188925064314,-0.01076077609625396,-0.008371344365126418
6.58,-0.24781093563329332,-0.1525295203248866,9.934559481243573,0.01780724943270699,-0.028845066142936988,-0.02453648827905617
6.59,0.08980447557125872,0.2075612270072984,9.69146727428725,-0.008401293239726326,-0.05285784464794028,-0.017278263290671836
6.6,-0.03297170259393211,-0.2523004414380901,10.075029098497058,-0.01838303486449334,-0.0039020215461558123,-0.01920366305391221
6.61,0.12607015635929825,-0.37300433593935683,10.000992405256564,0.024917539171692513,-0.007467578650604465,-0.016666463733680834
6.62,0.038859123777381474,-0.13573287219614374,9.693868504781042,0.0005427548389284899,-0.00019593674115266725,-0.006116913155510024
6.63,-0.0012316630131791264,0.23237700918501733,9.716447744230479,-0.0020349559504183575,-0.030754730382899133,0.013559086032260978
6.64,-0.05691411750278279,0.06464350631704086,10.070405541342545,-0.011752436644726983,0.011743366430342078,0.00027649142168433016
6.65,-0.07778827163769098,0.2154744158413698,9.587560312022438,0.016708442231896128,-0.007013844654819855,0.030295044528737176
6.66,0.21290768953468245,-0.11537192663506522,9.895457625680754,0.006466410435737044,0.002401227577887042,-0.014969523683764481
6.67,-0.031884087371882114,-0.020455514468284166,9.825503771177603,-0.02014963606998676,0.024577135833068326,-0.005252066574663592
6.68,0.11154431921473959,0.07070674011725307,9.75562862193416,-0.016799899208852127,0.05620507829222277,-0.013222479641208928
6.69,0.12163538551935918,-0.2101213133422663,9.684909655469115,-0.012425027036619832,0.00355305162823695,-0.04755520218213251
6.7,0.13422405467276208,-0.02029888313705199,9.810348770876345,-0.0436149941413107,0.03512365829023424,0.018494881960486362
6.71,-0.0018715177776416772,0.424853963018685,9.918800704712558,0.029581087303078554,-0.005211801236678071,-0.014185475393218095
6.72,-0.1873173477103894,0.07868712211503184,9.945815454222842,-0.02507612563702198,-0.0014121514591409405,0.013506025012190582
6.73,0.2560002997683461,-0.03497434946862416,9.674555542991767,-0.0009391643502461706,-0.004659222228607623,-0.01205955702146789
6.74,-0.17194734072982834,0.11855702508703757,9.922730544470335,-0.00698494907016024,-0.02912364550319811,-0.007486345364173459
6.75,0.19597621489655798,-0.16099915492747052,9.577429113659344,0.03168286186880877,0.0039004525200101625,-0.006653904345622958
6.76,0.006747815755909824,-0.03874104185098748,9.896824485051818,0.04848301699862833,0.011397767038100444,-0.00037434721163363333
6.77,0.09147100516683787,-0.16811998057041766,9.624766407593773,0.0009474344669140312,-0.02069796545619603,0.01666493573889414
6.78,0.10527225940081762,0.23505480789338118,9.803786841614443,-0.008256603083170496,-0.013582689217873523,-0.02586420349613004
6.79,-0.13990662420756042,-0.17656433628540505,9.828586859965977,-0.013369912044757631,-0.01840141078802742,-0.025473783108485807
6.8,0.2658252777897171,0.08764157393213684,9.659335058449578,-0.016458912406657443,0.00826556444757062,0.017560599379457892
6.8100000000000005,-0.11419214743029074,0.1514234362095609,10.118940353086517,0.006227219854904182,0.016721230846001366,0.009941225724871407
6.82,-0.023722171063836877,0.1992802087981084,10.006452223671088,0.014345472744114398,-0.010352817976964065,0.011064497993187329
6.83,-0.018336937130257927,0.012939137066376493,9.891174886623281,-0.019106964259205213,0.00790704557517364,0.019447501040907207
6.84,-0.07909729126762212,0.13156140309395328,9.80965150195393,-0.021169513189932748,0.020870645326808487,0.0029315817941838376
6.85,-0.057269956259607395,-0.10975218041265235,9.96373517495476,-0.009700827057120033,0.03121264882230285,-0.007234687210900369
6.86,0.09086056012684432,0.022297314432030268,9.631648439818044,-0.05104393092069368,0.0019329429719277798,-0.008314780223510496
6.87,0.10103090776733062,-0.29777889923124945,9.736875138680595,-0.004874881199288455,-0.02640850903337203,0.020630330071073927
6.88,-0.10119479904223633,0.04465271063725807,9.758286707231408,-0.01433587826248502,-0.0072348578792610346,0.005366228305883712
6.89,0.10925828030787417,0.2052359061178383,9.665485061201728,-0.016695084950589318,-0.01475385110085678,-0.02018987163233399
6.9,0.23176746127095638,-0.05916022298672261,9.45078340100887,0.010969718160886799,-0.002059124152864215,-0.024559589417564514
6.91,0.09146443939384946,0.123281433834622,9.593428317769988,0.024627147884408576,0.015661035344290274,-0.004716612934002388
6.92,0.023566646093547628,0.05068699494497722,9.935592483352178,-0.033934108686325064,-0.014151163217628169,0.03066014973191702
6.93,-0.1275202655533087,-0.03140822966729791,9.564452096920043,-0.0093883174557297,-0.010940541015377146,-0.04710294949219688
6.94,0.05709526587360265,0.06458124940321353,9.967228392574064,-0.0034955818950197517,0.022531334800767328,0.0031864810412289
6.95,0.13914632115160888,0.35980753999935144,9.607666783200113,-0.03497026003094343,-0.033054623622474216,0.009903422756248064
6.96,-0.06152900700379166,0.2649753142210981,10.052117707228694,0.013202362665407932,-0.015392189502403371,0.025568113757028593
6.97,0.22743678214493562,0.1135599075135541,9.902301529837935,0.01579816652102624,0.000767096711508761,0.005944735452989627
6.98,-0.03810484860995869,-0.019604217537615237,9.836845751458482,0.018981007114415267,-0.013815270032678685,-0.027648175872595424
6.99,0.07026711436495636,0.1315811675321698,9.555024622247727,-0.01548241346821271,0.017235887626977593,-0.007873657166240257
7.0,0.29241130801626625,0.03410756889952834,9.867588005753056,-0.002738313107795669,0.024883496455368456,0.02187295985204178
7.01,0.004991915959164622,-0.05712250759137826,10.001166608956941,0.0018968969126447427,-0.02757832211197903,-0.008201105611279408
7.02,-0.46192762620077316,0.13740144149164454,9.729630163467018,-0.0149785806334644,-0.005369323654839838,0.019505000546869072
7.03,0.14501063402298647,-0.24136601054373086,9.923283858770771,0.0336139923403903,-0.027835615581977426,-0.008642565294629768
7.04,-0.1308988930947855,0.2199974771559734,9.570529307858362,-0.008769728874698764,-0.006050699432849117,0.011217124340518176
7.05,-0.19688945807561217,0.3221909558582677,9.895106786163625,-0.01477979718078662,-0.003108961328277417,0.0025019523430305367
7.06,0.11399854641104976,-0.08678065858133834,9.790510065913013,0.02780913191414994,-0.0133072128320583,0.013043346251441415
7.07,-0.15497616380771637,0.04599038514440447,9.683887233002629,-0.04195493865759009,0.0003489574824910124,0.00603204497624393
7.08,-0.049968455989120475,-0.08696242416647555,9.829303081545683,0.024512355116682163,-0.021079767230436103,-0.015739757999805284
7.09,-0.014441998515789197,0.3882683197756076,9.79486618681137,-0.004573895445122668,0.04011737854621455,0.025492512501353728
7.1,-0.14819628755913541,-0.036636603719780454,9.80102866146203,-0.03415783577680648,-0.0010448187237618385,-0.015001855271579791
7.11,-0.10345000920891541,-0.11132284453235354,9.964321139603975,-0.01219477679895476,0.012954779474330071,0.011344817419229982
7.12,-0.18699396221834375,-0.05259270894003629,9.693603295905907,-0.02507979606194924,-0.016322462195957836,0.03254837146636852
7.13,0.08152726112908093,0.03169383085770354,9.64640585501147,-0.027084896679660977,-0.011226165815125722,-0.03143545047240858
7.14,0.0385368495248394,-0.0050225064475679345,9.733185684167735,0.025036901759518268,-0.0013410992209355154,-0.021249838614038428
7.15,-0.004671394694714418,0.024209463931291735,9.561789850763937,0.009100203364221508,-0.009527248992746727,-0.00140452664703899
7.16,-0.2464570274860886,-0.21615206609328624,10.042562095306005,0.005840283671842955,0.006029853146600613,0.029078037943004082
7.17,-0.1984319087315434,0.24164258157990376,10.23007556332891,-0.018654288806293978,0.018492785813816023,0.021528137328605576
7.18,0.052936804675278705,-0.18784920224425275,9.754984360347597,-0.011189266639057225,-0.014643686621770065,-0.03642987826719367
7.19,0.10531244603357384,-0.049894316992476095,9.938029280917405,0.005023129481735059,0.011059556128354056,-0.0036985625679577232
7.2,0.039577297215188,-0.06295525031711788,9.833886850022164,0.014720248450276734,-0.017312830502597618,0.012552264567565419
7.21,-0.00019491715474206046,0.09838317099397209,9.786167896535348,0.0033648575084445653,-0.00935646192511199,0.0027343509940607113
7.22,0.039897509170530567,-0.005121609782505122,9.657387103025354,-0.008490875966526963,-0.019095315890747654,0.0011240016168547083
7.23,-0.1689443932493149,-0.08033818478069082,9.7441419347618,0.03288930205319837,0.008638752917145278,0.007347633667856927
7.24,-0.23082442426841854,0.036377158469160224,9.9057522555963,0.0352882156738932,-0.006271857528041602,-0.0467579852221615
7.25,0.25064818598336247,-0.053181417776128836,9.769094331351143,0.0005747337659190314,-0.019566487183790168,0.03459931679766995
7.26,0.1540800226681894,0.22373341167386973,9.689166057158964,0.01029251725448686,0.01037652340001619,0.012559337676631201
7.27,0.0427556532748231,-0.19995884250072302,9.584171545705773,0.010274520172026692,0.0007924013868952684,0.01512461529875483
7.28,0.10100274749997175,0.01963993440474135,9.807256411812595,0.001740288824102258,0.005081663806754239,-0.04018146028042071
7.29,0.08907348673102562,-0.20381105635651112,9.993328663979653,-0.0029895950803195638,-0.023492050898613316,-0.001537113472794564
7.3,0.12335578896167103,-0.02098889151307989,10.007895369033138,-0.03155780215651625,-0.018195222291008627,0.00901963572799788
7.31,0.19389144616763151,0.07059260657260875,9.632355990113746,-0.009951456354798877,0.013713654593588219,0.022871057514556085
7.32,-0.10868025674894458,-0.08576543148418533,9.579797246948491,-0.0013472563550908892,-0.004123613273814615,-0.0014082247381711527
7.33,0.06587516923255228,-0.27210619678387354,10.042235774306041,0.004792873523221201,-0.006584852141886377,0.018911476055498904
7.34,0.012954398918338923,-0.035963386998995386,10.051264066449637,-0.0217531987029767,-0.002965343579196208,0.006498727082520681
7.35,-0.1515145522369514,-0.07467606178432497,9.97261220928377,-0.05123223209805488,-0.002843108172306243,-0.024097936562468822
7.36,0.13248619723961677,-0.1810680694797878,9.979906298611711,-0.009874876671044013,-0.01777418051419397,0.03539327126218005
7.37,0.13989839721012823,-0.28256403955060005,10.015648193951865,0.02486916766840698,-0.007172100792329299,-0.001474822760726065
7.38,-0.022651770171505544,0.280377651753759,9.810488686693061,0.018401802988309613,-0.014048477291873954,0.006489992592801683
7.39,-0.16494975247601082,-0.011454779854372672,10.131134012597169,0.002639755671874193,0.03039378786366112,0.008867177659455487
7.4,-0.041460415939299694,0.07098190459091426,9.590934609473251,-0.0023853301560874925,-0.017512972577365515,-0.01830831282555204
7.41,0.2512645533138251,0.06480320641803664,9.586462982715263,0.01975469863323473,0.007287156812518128,0.015453999359590851
7.42,-0.20533566261140707,-0.12691130181303326,10.048563962565666,0.011225628480417103,-0.010685285821664756,-0.013444652528950869
7.43,-0.09637975325958906,-0.11329272188273083,9.674179442029162,0.024477859865513596,-0.009043460264767246,0.0018257824872399203
7.44,0.10828731721251288,-0.02089012695909931,9.594032871501511,0.036914798790398835,0.008427236845071568,0.016049513288058554
7.45,0.056773058663031783,-0.015922027922810472,9.502136669565527,0.028448769491967663,-0.006008380280585803,0.007843451049794139
7.46,-0.045892028779929414,0.0662005458465832,9.847593968948978,-0.0021180325552630323,-0.00023029648800613556,-0.008337447140896207
7.47,0.25389425810424504,-0.024984135972654312,9.712211115048973,-0.036533267797096855,-0.006730478319209488,-0.011925565544888475
7.48,0.35027055695723996,0.0633365846242912,9.854884614650324,-0.007174068820392472,-0.006686277916529799,-0.03061594906866083
7.49,0.40069911214668086,0.26879989652133907,9.865690151836931,-0.02589641287706769,0.008453568806502595,-0.0035004638405588284
7.5,0.19910404287195305,-0.17669640878412732,9.775476021395656,-0.003962172457929433,0.0361201915403472,0.010702976902436016
7.51,-0.20216799558367804,0.25149906214432666,9.749687886171078,-0.008782959670028671,-0.01827384166089357,-0.026088129104150252
7.52,0.003838806485157366,0.09481172934255001,9.541156826885938,0.02728186425563949,-0.009339586402904363,-0.016390666254539322
7.53,-0.08872434261545051,0.14113309453534015,9.790360213346407,0.020966982645207518,-0.0037677651395543778,0.022246504575545195
7.54,-0.09556268086147286,-0.18035159360989994,9.810783762070503,-0.012703997778033953,-0.007377856988451042,-0.01318893050014165
7.55,0.05811486420458042,-0.060823227794935555,9.833777125438706,0.0038266148080838124,0.013809257364824874,-0.003646869034957993
7.5600000000000005,-0.06728396110622326,0.2577797692276477,9.72883325204573,-0.022318102641878987,-0.00455288379865934,0.009640258537441763
7.57,-0.09743847370090529,-0.16453045940371439,9.5565275398442,-0.019010599479908376,0.02633352034636344,0.007413000471287253
7.58,-0.33638547665331897,-0.16583686341251638,9.754724381818189,0.017610146526701956,-0.01044227654154446,-0.027792063894392635
7.59,0.07914957044664875,-0.1642109688885304,10.068374967497244,0.00573346664999923,0.011988229365285904,0.02224529187501649
7.6,0.009509590620655768,-0.039793953021826756,9.835041739426206,-0.017294530499560003,0.03969488679929871,-0.0033876791799579906
7.61,-0.20564692588192837,0.22537496056759218,9.981298592434719,-0.009762292568332233,0.006501656117735314,0.008385748910673872
7.62,-0.004322557732879121,0.055633199427882224,9.809636209153824,-0.0008878624360539108,0.013830100476456244,0.024730108986852715
7.63,0.04118425723820849,0.16849391347912776,9.670355269111626,-0.003166858821313938,0.01667352487217042,0.01400154004313607
7.64,0.08224926183504079,-0.18854582604416634,9.766873854700139,0.03441320085638193,-0.022035538288041927,-0.015859957451818875
7.65,-0.010023953126269275,0.44341956005628475,9.65628607452464,-0.03328534505892748,-0.016812749822087743,-0.0004968335882528386
7.66,0.366707854062019,-0.11060173270402865,9.760090287163138,-0.00503777122682616,-0.005935990990898297,-0.010391431377225965
7.67,-0.0007698508062978568,-0.18800727778491125,9.632507990761692,-0.009857503692501237,-0.023784628791139198,-0.02905135191094191
7.68,0.0656084745130491,0.14779303975479866,9.476602066756879,-0.0001478517951939294,0.003649042092181886,0.011184133911303159
7.69,0.006651417047578134,-0.31225693154356093,10.01490094789539,-0.007732330630503452,0.02872074447046608,0.011066892540325397
7.7,0.46917171201110197,-0.0022229590521587114,10.11753497962449,-0.0073089882827554135,0.036299666000222726,-0.015320289303854318
7.71,0.22905375617845458,0.2062212614588267,9.774177011070627,-0.016773991495045642,-0.021170474170708196,0.028540011013629473
7.72,0.11026102017867677,0.06634370960433145,9.983870564744977,-0.01918169461032512,-0.01320095809589354,0.008998072632305785
7.73,-0.01169499107224357,-0.33503169302501745,9.625060066074468,-0.04607934078071474,0.011018032608970335,0.05699372317737881
7.74,0.04931570120879717,0.5251316896844266,9.489062014535197,-0.004366819947979149,-0.018210387832950925,0.012807454663313057
7.75,-0.36558207292424955,-0.03864302021518766,9.53805259613963,0.0051889153522023425,0.011658723457856795,0.03562715840552376
7.76,-0.13109691552824068,0.047152303776316275,9.727322111540355,-0.0019108921222815512,-0.018059568001590493,-0.00024352631800004366
7.77,0.21028805518329047,0.0702755770533109,10.181911257159234,0.035093705641883174,0.028142047517746023,0.022144484864195145
7.78,-0.1289461666714677,0.13218016061027935,9.49957279228517,-0.003603823624904451,0.010483443313411205,0.005528980759159843
7.79,-0.4826212934566731,-0.04745943092047172,9.728541962096928,0.022944870155280614,0.031102985673152863,0.029897681456690695
7.8,0.2554149977081377,0.2666871621362507,9.820247414573506,-0.018376651944235038,0.009657560597153123,0.007556611040998001
7.8100000000000005,-0.059666398176535414,-0.05158313971674893,10.101527075925748,0.025058686143719394,0.005690562110277428,-0.0018880428376216352
7.82,-0.4533877799728638,0.03848582420864361,9.844201760988954,-0.017633607796636447,-0.04081929207096249,-0.024057225661419136
7.83,-0.002817689205555888,0.07010522841339456,9.642066825820777,-0.0325369122975171,0.006672356669155095,-0.014328945662399579
7.84,-0.02502642600110777,-0.050638957257817765,9.807725963853235,0.019168278999526226,-0.006951341107179516,0.003621996447844317
7.85,0.05791603710345128,0.1574270394492519,9.819877219247934,-0.008751786249294864,0.0027295217983291714,0.0323530757437804
7.86,0.0901294396327031,-0.08663454627520636,9.801106992972075,0.007746672645523365,-0.0077395672564995275,0.03175241407621946
7.87,0.32966114177354067,-0.12100948112009524,9.941359422889326,0.011546996389216356,-0.007437158378141358,-0.026412718156774036
7.88,0.11191748131666443,-0.04530742936976545,9.682127842391234,0.005079943829548315,-0.019355453951558254,-0.013327159734240606
7.89,0.02625919852306161,0.04617164884517319,9.963761286598496,-0.0135825837332186,0.02408388211064925,-0.0027810416265245026
7.9,-0.06013144792079333,0.12594931512048596,9.650805213497987,-0.010833351268154375,-0.028638231269913623,0.032988355633433296
7.91,-0.17726130737699552,0.14476658970493853,9.760450867464362,-0.01814752490352019,0.006719635191148626,-0.008629792562955589
7.92,-0.13873956107786398,0.1597833934283265,10.014354113086588,-0.005364963572623295,0.014424402092504658,-0.004022037829854437
7.93,-0.1503748010660688,-0.04159841744852668,10.015372051865063,0.002557044457093603,0.030810805111859987,0.04164543672382181
7.94,-0.24309962508332184,-0.2623654405191593,9.9233834012621,-0.001743217934618431,0.01664689077090822,0.022637380305704963
7.95,0.011463853583889088,-0.05273661379517614,10.023133551801134,0.023339068559295205,0.01266301861037588,-0.00016511853597106832
7.96,-0.08262847592458956,0.12565424301469927,9.490693576781316,0.027276147376829183,0.014548739849130536,-0.0003382320757998692
7.97,0.14935539434401357,-0.025300658729123685,9.581819699525054,0.01837894764609295,-0.00999736008156801,-0.033280183874857275
7.98,0.0071889403882998415,-0.3086154656837619,9.840294523946374,0.007418587978948731,0.003100726758124731,0.004213474038020668
7.99,-0.35378640458994326,0.060326125468632114,9.722923744403184,0.013913361488247504,-0.015051889321097292,-0.01712626156168942
8.0,-0.10527985062469908,0.1581568624613284,10.162838289030924,-0.02153850154405778,0.0057961521176193,-0.039529836920493666
8.01,0.11935730260139374,0.14191238024586844,9.836383223489612,0.0010380054412684006,-0.03565396273384121,-0.0019191816890116022
8.02,0.04542764280526148,0.013975297279895622,9.621347429164867,-0.016528683771054608,0.0057775557197117956,-0.013978722352359705
8.03,0.15714807450457777,0.37436940344023834,10.365264503343667,0.003900598440825968,-0.011512589893615253,0.022639370892151442
8.04,0.25070725754634404,0.19290091944306942,9.777074010195618,-0.02679889325389733,-0.025742972984713855,-0.020112342704813095
8.05,0.024707739578363634,0.03782696269167593,10.10030333733907,-0.014765582570383974,0.02000214114060828,-0.014170253765018131
8.06,-0.063620323295102,0.20115480772831415,9.773592884354397,-0.019837698996055923,0.01244890755922974,0.00040437705090153655
8.07,-0.08564115521649446,0.24496565713122095,9.923168708302846,-0.01953910964827433,-0.010434428625646837,0.0030341624570415647
8.08,0.16873315866133784,-0.13339126924716554,9.974106843204071,0.014636687362257251,0.017810403561011382,0.006859129075170409
8.09,-0.13325148404337378,-0.07828832060446071,9.892108510034882,-0.014524484531477705,-0.008855774655017731,-0.0020074893738408037
8.1,-0.1638702252418359,-0.1842551737980098,9.569527544986046,0.020550530854192447,0.014511133584182014,-0.0003051849733228881
8.11,0.1288538233867882,-0.13084207274931975,9.87507028197303,0.005699373841053546,-0.005261710307115317,0.011248048055662657
8.12,-0.1270066329100271,0.09667268597485047,9.741942835785379,-0.0165526560889769,0.01241975299524349,-0.0016658101529505103
8.13,0.11832290856086478,0.00339596077976481,9.782403979505643,-0.007352806742105054,0.009064700880368811,0.023671227283435625
8.14,0.08538375112652594,-0.39385547045554753,9.56868799545154,-0.027323778212593536,0.034352143504631026,0.02887057248405771
8.15,-0.17007996386049118,0.1870211133538528,9.696709528507576,-0.014332584303919262,0.00907360679407945,0.01855281633825609
8.16,0.06036051074356882,0.06691598527909624,9.564785900540917,-0.018556631961120628,-0.030185240625401958,0.009122129904868489
8.17,-0.21208253433052382,0.17766155609654458,9.251558536135278,0.007276921678721341,0.021960585479233467,-0.015062175734240478
8.18,0.10001051845963319,0.027702190894663057,9.994470720682095,-0.04580154351953855,-0.014306200977373286,0.022631180272719202
8.19,-0.07335428657476721,-0.03950966843522417,9.958225102044835,0.017684996389665756,0.03846255637235348,-0.031860213651237965
8.2,-0.030341141714969974,0.1202319140900784,9.718842498767659,0.036455358355509206,0.014127290994304953,-0.0021962539001559563
8.21,0.06016115358610745,-0.15004033794556615,9.511566309117422,-0.0029261095746417436,-0.013431795557570634,-0.00915380714079965
8.22,-0.02730101689580026,0.043571586443457856,9.896641206960187,-0.0014424652793709242,0.020851871047832177,-0.01590941351179455
8.23,0.038625111046501515,0.1150736108245259,9.902387241409423,0.010623987973330069,0.0494411192854091,0.010786393444579325
8.24,-0.19351761772788592,0.2199269802141369,9.782822371665958,0.037546059731884796,0.014434236379604417,-0.042224116355005954
8.25,-0.1498866084254502,-0.0542993452514333,9.844357868298562,0.030003082879609455,-0.011428642433554395,-0.0010199590207511985
8.26,-0.08853878398832804,-0.32401683539663334,9.956559360883382,-0.007035485406551617,-0.014445080809763785,0.026922985115440473
8.27,-0.31873482813690474,-0.028871460127177014,10.0291185371224,-0.03902102061756807,0.01951607818675572,-0.008167796661495915
8.28,0.3691742029958442,-0.25699916036747833,9.910139340307504,-0.018967898689280317,0.002342297678830932,0.024610697069311762
8.29,-0.1014326992857833,-0.023753234425631535,9.656940000973046,-0.020679999956448546,-0.023416995233893557,-0.015885596425174356
8.3,-0.006369680323477777,-0.010168064678451104,9.524928339149328,0.016110324321517974,-0.012629281584789171,-0.023450931375523787
8.31,0.06079744678512351,0.25918710918790544,9.862828930012713,0.01761607385583942,0.02573753277836739,-0.004581464418890333
8.32,-0.42121801094780614,-0.19074238933040263,9.808615397850325,-0.0024378588819655026,0.003413702657251884,0.011071904434294866
8.33,0.028165539011490492,-0.19819762178497788,9.772764395400188,-0.0200567601948771,-0.014037044205327849,0.01749701601954723
8.34,0.0067878521439039136,0.12710187781219448,10.17760470773716,-0.027040735943264362,-0.03255093682296156,0.03966228284931254
8.35,0.11774750730385349,-0.32704792101812824,9.95616859681521,-0.014724665256786158,0.00118244742795477,-0.0010309340393376124
8.36,0.10464658537996016,-0.2339521921923079,9.772671593997662,0.01931315257772767,0.006346905854179107,-0.01945332064299409
8.37,0.19072886895795116,0.3427418555448336,10.007100306269296,0.025305146063058413,0.01925295112500834,-0.009145576424535258
8.38,-0.35646448453129903,-0.09808774301812573,9.724819560179176,-0.009953685157145481,-0.012937701198623005,-0.03415659521338855
8.39,0.13178048335431886,0.15035321405496474,9.92102448238264,0.007203571623651,-0.043447866513527916,0.025977520549075542
8.4,-0.06648503693495474,0.18064502750833492,9.606093204588563,0.02155128738818731,0.017780594130664483,0.015636506897950615
8.41,-0.048665455920565315,0.04405017559448266,9.940691802543009,0.018424608435441834,0.021055761678122207,0.006768431072744813
8.42,0.19556053757493141,0.039698025410204923,9.876076256906705,-0.008106842497309894,0.050888788880105396,-0.039338276999286416
8.43,0.01978515899173973,-0.2816214187045064,9.66894674475196,0.011666615447630339,0.01855658067868328,-0.020137695432304557
8.44,-0.11328555628356979,-0.11284278510050236,9.805396315914214,-0.017962166691218553,-0.05734247444742693,0.03598541004754645
8.45,0.08830163237883397,-0.08822540827899657,9.788709713725314,0.037108549707999476,0.0009450819675057187,0.03995292520388802
8.46,-0.08605361519604793,-0.10035457211572844,9.840725598086134,-0.007071755580173862,0.00990889010993745,-0.0033234963108669403
8.47,0.09167086432375858,0.2718668344359694,10.167936641877686,0.020185230750436323,0.015463035753669837,-0.0011776859651566132
8.48,-0.2224981099352439,0.22071809534705553,10.153845931722563,-0.0024117084315199416,0.05244002963607318,0.014036683370593092
8.49,0.1783795741011691,0.004254376130244886,9.710874715211693,0.002686300778006592,0.007773880314663677,0.009714664012367868
8.5,-0.2383418138471271,0.17887358610027018,9.802647475958128,-0.01692036644162517,0.008870015087187438,-0.01951583509210601
8.51,0.0626250833187593,-0.10834894034634161,9.773956667234188,-0.019400814696237386,0.01822716970020504,-0.03539252597197412
8.52,0.034394991162480945,0.03245224189324865,9.584560449146718,0.006882980218285454,0.008183570666354723,0.0066884483597096
8.53,0.13773009706691336,0.05527707043084785,10.117584348658632,-0.01425144861387153,0.0384768421965441,-0.008005755238769011
8.54,0.00406558146926309,-0.23138661432044,9.845998254707641,-0.003485722966563305,0.00029244261225035693,-0.007092827089964152
8.55,0.13632060081329997,0.009000677380960984,9.779254063371685,-0.038471389111714605,-0.001197594937974805,-0.004440464250819908
8.56,-0.16725174029208767,-0.11755449289519335,9.823792466215131,-0.014053646053206524,0.015576432211619529,-0.005186788213125839
8.57,0.2880417238618436,-0.1644656800285049,9.77872770218379,0.019499720022959556,-0.035962169885182,0.00044112537513125733
8.58,0.09742155505097072,-0.22664108249919743,10.014238927457903,-0.01985896905520254,-0.02252551871349019,-0.009108014070263949
8.59,0.047165275943049915,0.17508670741233193,9.946276674598208,-0.0282154571336484,-0.005399028573578176,-0.004270875309610141
8.6,-0.18191360668925038,-0.46845802805912296,9.774162468167972,0.016064999098835048,-0.021996321258693472,0.02336250394903427
8.61,0.05718001686140213,0.01584753854271736,9.853776109387795,-0.0014386000727248272,-0.010094770260098265,-0.02044117294266336
8.62,-0.15040061122838042,0.06277420587591694,9.827752173396691,0.01682199998205917,-0.0035452506332563577,-0.008269169172868638
8.63,-0.06370146395394369,0.07893872461825818,9.879890284618403,-0.015920392654024743,-0.01862258656171628,-0.032234314839351665
8.64,-0.27255183362084384,0.11255375912031419,9.690181916173698,0.0065091165790191795,-0.010439218157893613,0.007497199067723585
8.65,-0.06748465007052971,-0.045691623506591984,9.727336135904515,0.006720542642434696,0.012354145935163069,0.006362575668058705
8.66,0.5167064804604673,-0.10100498746973394,9.851839448285775,-0.035968261197393415,0.02727396108043151,0.00883761625324435
8.67,0.2381693683143561,0.1403742123037082,9.778613693712348,0.013295164724413793,0.009791467363642949,0.0020218034986450575
8.68,0.2130301516805632,0.20259977083753616,9.871042117785484,-0.0006534665663244554,-0.0019347977922124565,-0.02663754814102075
8.69,0.11780547409282104,0.14992675304486036,9.692322755990633,0.01076188874334408,-0.03215484344623997,-0.028017339725465648
8.7,0.1368633753920147,-0.03436767273112883,9.667103810630241,-0.01438810921488874,0.0067298580972712276,-0.0003795283583239575
8.71,-0.17595969015618776,0.038501140555617326,9.57598698407532,0.02535710778155772,-0.005662663485230388,-0.012345846434402213
8.72,-0.06851215346986494,-0.08030703364533696,9.755479255165191,0.0021056890472281723,0.009480186633228464,-0.0027498739285427803
8.73,-0.11341406361149281,-0.12067937953625629,9.998990367358006,0.01762878124336044,-0.0077746956501930356,-0.0387737498091176
8.74,-0.25428105757396696,-0.07122059224610189,9.727883718014192,0.025268377863175952,-0.024389033585528807,-0.01754642226310813
8.75,-0.017176892492736073,0.10645038241019728,9.715040841435906,0.011380290287727406,-0.004506910775661612,0.016875468750176054
8.76,-0.146224304865017,-0.04446870777907676,9.993871179330934,-0.0018660550266572777,-0.00962540828181279,-0.0019958172651604465
8.77,-0.3723681812441106,0.3477455712716392,9.68028947517586,0.008654247938040295,0.005001402092139074,-9.545989126082615e-05
8.78,0.4340191509894222,0.034126027832542,10.00458055051329,0.01779655764884838,-0.0025707356548347006,-0.03255336975144137
8.79,0.08240370603082015,-0.22601443723393067,9.949952079526762,0.0267009228670985,0.011089125790986835,0.018161179671705736
8.8,-0.1624319461186407,0.1054344055853158,9.767791655624638,0.024979847421889245,0.012188948622579862,-0.003723508020269395
8.81,-0.3608704141609159,-0.18299530170613362,9.515223799647421,-0.007053939251985176,-0.004777727866653242,0.00990900259359142
8.82,0.0020445887148962077,0.16984218431754672,9.817390606853307,-0.009064350140259123,-0.003794928953724191,0.00882511312055741
8.83,0.04360182058993056,-0.04682046108690105,10.106385764211135,0.0039299442303603336,0.02108408884347018,0.0002412059752796019
8.84,-0.052470674372686904,-0.2027319189642847,9.872283615294613,0.04660728599798359,0.017167752897750417,-0.0009444039080832321
8.85,0.0880659193615344,-0.17672020647901818,9.889361267492356,0.031059013481138376,-0.019981855759004095,0.0007045323121598542
8.86,0.2558819403162751,-0.015390544579705795,9.8225543717185,0.015140904664619845,0.012441464961934805,-0.0013881508521414213
8.870000000000001,0.0920974598196872,-0.19364389512230273,10.067173507673264,-0.03305165131607477,0.0030548605131191188,0.019239613233230743
8.88,-0.02677318765925309,0.3178480868335578,10.203086390703229,0.023541814856148646,-0.04804229994071729,0.019297731214837965
8.89,0.009853608803901626,-0.16336813146845244,9.620788015760704,-1.3965960639648716e-05,-0.005095698084086046,-0.016038204508658706
8.9,0.03654031803303715,0.06195734742348927,9.882542588264165,-0.005019729331898469,0.02709478005437198,-0.0056333939397246345
8.91,0.18177895819301024,0.17201371140399968,9.879962088270581,-0.007842838337002715,-0.01248198659626343,0.01844821976468112
8.92,0.13156970229831322,-0.06808444946563633,9.997608377645241,-0.04592437224327206,-0.013644297917927203,-0.01860533050781742
8.93,0.1824096833436221,0.1764296798797807,9.830707627333904,0.032052659923240856,-0.02015121983755444,-0.012647198742765365
8.94,-0.02959658675528701,0.06458383034592179,9.513816383250331,0.005386757565160233,-0.010465654627893601,0.04895798240470444
8.95,-0.1830483020914312,0.016345329669939637,9.715021757277967,0.008643085068780374,0.01269111812664432,-0.01594026683780246
8.96,-0.08583216912038329,-0.14065599786787325,9.85971025678647,0.022337622745986902,0.04416108189149168,-0.0005622542714543905
8.97,0.07173261636102268,0.10148687490616301,9.973584424305438,0.007969969761601912,-0.005554023816049274,0.032067970686376075
8.98,0.4086531801239102,0.10665060789114791,9.652303426536253,0.017773621229025954,0.0017175780512613092,-0.005056112462017835
8.99,-0.533645089265357,0.06715385150971519,9.777184164854159,0.01066982179171565,0.0044477292073231926,-0.017378006931236818
9.0,-0.05579138930301061,-0.03324438468076332,9.96497347394788,0.01054107619696241,0.007140226449021895,-0.011874627049428177
9.01,0.16677312359156313,0.03433577878948665,9.862908478311972,-0.001965375431162155,-0.011940317804446985,-0.02538557063041205
9.02,-0.043403795596541964,-0.08986922718235571,9.812473889680637,0.028230418043516718,-0.00367729469993884,0.0289960204041162
9.03,-0.13580557218481493,0.21192899494547526,9.964128261977969,-0.0025893407809184955,-0.019738033739790828,-0.017226910936794744
9.04,0.2655179198849004,-0.17415887900786034,9.670297841583208,0.011567758197180525,-0.03801048394916569,0.020903230293572665
9.05,0.14909650752946396,0.007916819897866622,9.723571016841404,-0.004415432348102528,0.02845846492543889,0.018014697565281002
9.06,0.03997858971588344,-0.08765402093103802,9.633127694144914,0.024389926460742523,0.012289382943080967,0.009119565393460502
9.07,0.055822386720527195,0.11446494836160134,9.658912634165613,0.004398133046295357,0.0040924093770957435,0.010383116026264716
9.08,0.19583898733030444,-0.19249319932590783,9.660221982901655,0.018097262627647128,0.009417321661589092,-0.027833578373889827
9.09,-0.14863272396789456,-0.08765120657440557,9.850960429080155,-0.020423604248589366,0.03187625052317787,0.023646901088500524
9.1,-0.19504100413512435,-0.09068162696407109,9.542110618906158,0.03082197025308636,0.002288720539553336,0.004276910378393359
9.11,-0.3531067890915897,0.10655680652359481,9.850861094934594,-0.009128797740688812,0.019992870508529444,-0.007472642309707773
9.12,0.2822628486100366,0.08431664079173967,9.68834359706595,-0.00011968042205086578,-0.006784774877439383,-0.0091741795861834
9.13,-0.0021313887638288067,-0.18477593574741552,9.644177098038998,0.011019038368875203,-0.03781963077994193,-0.02578216784091834
9.14,0.09476110785926363,-0.3797368695562131,10.098066077183049,0.009384192675705054,-0.03000670840269323,-0.0008175658096412948
9.15,-0.23023283686776438,0.08075337339789054,9.770459565748746,-0.01945685020786404,-0.016544509191683005,0.023083565301883886
9.16,0.0414214891650631,-0.17575543281723444,9.652795082176546,-0.002595714947591588,-0.02217339456456701,0.003107801859532857
9.17,0.06862315088303357,0.043563958003088814,9.790373599900276,-0.019385167088745645,-0.02519137637133285,0.005641427545041542
9.18,0.21843453556974193,0.3196380932580191,9.69482926879477,-0.02359710398475264,-0.022074149997335125,0.01998447943739678
9.19,-0.12029186737117493,-0.015312749024952372,9.958850955623783,-0.030698703017781225,0.011539595706609163,0.035320322941966846
9.2,-0.046962903606631926,0.030389603159786557,9.830344086017485,-0.02240193254460151,0.0024926680705663405,0.0008047395237451864
9.21,0.01555185615930429,-0.08487796087379446,9.763108418372623,0.004011341132661859,0.0013197583863049026,0.03317105811334609
9.22,0.052831712257248524,-0.1698832444766608,10.143365202450445,0.02964751292161766,0.010828205303803897,-0.0038183267282090507
9.23,0.004167598352286531,0.26606109958924745,9.701142225461794,-0.006354503630208923,0.010014615913649026,0.01924539487979333
9.24,-0.029124224831790335,-0.1352953805621581,9.935777900140415,-0.004376826407512758,-0.003002310976384679,-0.004375175179857842
9.25,-0.075755227435213,0.027719227350034157,9.830295350879187,0.016309824737311573,0.002210277743880413,0.008439441987622325
9.26,-0.13565960175703987,-0.06824179011521031,9.730870947292432,0.021067771898906074,-0.04475252549682608,0.005559618461811931
9.27,-0.057379342830230384,-0.31145439889029997,9.548802770142487,0.0316295813633878,0.021105918959207742,-0.011590814772944687
9.28,0.22675549272741588,-0.07313481159039562,9.602490041848561,-0.04833580311614943,0.010197534108815005,0.0037635332653389053
9.29,0.10779660441449328,0.015585964244892928,9.875232874139334,0.006971644438752256,0.030500125497462213,0.0005008583945523845
9.3,-0.12090063105854904,-0.15444078432546723,9.598368420189205,0.011630188404844604,-0.01711319124732028,-0.03864140502825151
9.31,0.27307098118886153,-0.36703907219574444,9.537114987052119,-0.019020252983953517,0.010841149835813862,-0.017832135676328117
9.32,-0.11298451187747481,0.2241058720259983,9.705728655760039,0.03104367619505331,0.007806137422581719,-0.0057082137748497705
9.33,-0.0836291462615791,-0.12570825907478878,9.793600379348554,-0.009187689173044581,0.02736000689066053,0.008189578590614848
9.34,0.13400694043286945,-0.1145080895659635,9.703204178224082,-0.00938846886795371,-0.012490346894753857,0.010445248525709293
9.35,-0.04636281715533582,0.04802999500016599,9.5460485639183,-0.004425768473843235,0.014658561026575947,0.028612495706792234
9.36,-0.059981822892890176,0.3038931054126325,9.457902820421037,0.018127083747170685,0.004025711738313149,0.019693465940001997
9.37,-0.30496027365027834,-0.17275307827727537,9.818202877243264,-0.014195544634406341,0.01726763403849176,0.02447374489356979
9.38,0.03797605260771984,-0.051383524358205285,9.78802044256178,0.02779740504232102,0.01704558023691976,0.036044724950122
9.39,0.1681743505692459,0.009569949602004333,9.837427044848287,0.016966034120888904,0.029996174682040737,0.01098235250218391
9.4,0.048161126736559916,0.27352493228341523,9.72318291027157,-0.009584075989492643,0.020648562484321818,0.026479797240261595
9.41,0.03136707095868227,-0.09589029524159524,9.891246723798341,0.027520385423401374,-0.02629156838374875,-0.028776597588375395
9.42,-0.2015347195104584,-0.037617170099928085,9.763246696170294,-0.016499905020791326,-0.01218335925924986,0.007914072835648015
9.43,-0.20999572569455577,0.19560667328169887,9.594759572221788,0.0034576848729608025,-0.012970597595264697,-0.0005255895217249789
9.44,-0.09066232686707384,0.23395545893116762,9.996958089429919,-0.0080668935594733,0.05066594446072947,0.010320070764743037
9.45,-0.11963725992473152,0.3727987201222809,9.83588627262013,0.009447540039518703,-0.01054793138445342,0.007368989371178634
9.46,-0.01750398042844945,-0.20071260353011644,9.91178683453552,0.024860706223411397,-0.01532669028782248,-0.0049960779857290225
9.47,0.2870717621557233,-0.032275066280142484,9.890836606639247,0.02982207651119197,0.008365803466964276,0.008393332770151994
9.48,0.05911259558204694,0.25339110667195996,9.812350010689675,-0.0065914735983543336,0.028977847220238655,-0.04202608344841795
9.49,0.08005684775634052,0.14265214630054066,9.737540152622952,0.002686964059340069,-0.008980866886925332,-0.005416969104889625
9.5,0.08226403533338215,0.11217592069651224,9.96744446484812,-0.027360381552706453,-0.008832774355258356,0.01728745855925889
9.51,-0.18076631954793076,0.2025694293892726,9.845099703308065,0.018291719205037624,-0.006106998267245869,0.010360332774642862
9.52,0.0368468422614239,0.3180567183919751,9.797904117368645,-0.012352879783482205,0.0006460919512066231,-0.003414302684759284
9.53,0.13765072047090604,-0.03916246137315107,9.602384516390769,-0.007067466205904089,-0.0029101277945478596,0.019491944702428547
9.54,0.03469667448924569,0.030500798362632368,9.92775588005005,0.011529145033901915,0.0016325595283104932,0.029681813860765106
9.55,0.03208054618944801,0.2573432365954584,9.525082747283317,0.007631120821380544,0.011466053557072002,-0.010220194239426576
9.56,0.06633292176767296,0.1533917602491902,10.09732769734807,0.011228539693940697,-0.00955254550362406,-0.02627579532875314
9.57,-0.015025495771271163,-0.4228907898980436,10.14592242451797,-0.004261018202326709,0.023270289920622442,-0.0004884746311429242
9.58,0.13539913570171613,0.2708138189876678,9.27592474587813,0.0003519923898490428,0.03473816978926163,0.03075405801946267
9.59,0.029618104648249027,0.231262841469622,9.71008204065329,0.05986116435381808,-0.008568483535815465,0.0155394408462184
9.6,0.12398132549581291,0.03585994014396091,9.623467286057023,-0.007235723073397405,-0.015701419529714572,0.001752638538449847
9.61,-0.13000471625748594,0.11190162896894137,9.858690651083839,0.022578164184092038,-0.014077038837432257,-0.04076928401818715
9.62,-0.21913901718150974,-0.02936838730611339,9.834710924018287,-0.026904884549301965,0.008668593142323135,-0.0020281743750181864
9.63,-0.05069440912951702,0.2136960542934119,9.918629661312139,-0.0058989527644954685,0.006221647468441127,-0.03422547076653869
9.64,0.12686101253981538,-0.20262314991448432,9.79046538716983,0.030145519390446067,0.010462094613621235,-0.011479812320447608
9.65,-0.08193739660853529,0.0687018619286529,9.577239437730343,-0.003112971881600621,-0.004585622749981551,-0.012669318017322621
9.66,-0.11151237888538874,-0.2377315738392896,9.635879705211059,-0.019876966165930293,-0.03613045569932404,-0.015012831146140847
9.67,-0.2758451786835403,-0.12828703049789153,9.646451166761715,-0.005556787859939554,0.0056534207068731435,0.016793904073542795
9.68,0.12778826966146414,-0.08222687965879444,9.983434307256772,0.00171577196245449,0.041601771078010844,-0.015226757698508245
9.69,-0.07664901948981474,0.013995098890226662,9.799418496126911,-0.011769170681915067,-0.002706278564575442,-0.013357053351688493
9.7,-0.213530025553997,-0.18842618622789403,9.632910101824182,0.009793872481450082,-0.00936437910080102,-0.029040889980882667
9.71,-0.0959886761568535,0.15198164660441563,9.546567630352111,0.027904415388022775,0.00616456318973288,0.012108595285041386
9.72,-0.12053231969722787,-0.03450792705285238,9.754531478727397,-0.05262482311809337,0.007883161093444696,-0.0074523135755009415
9.73,0.13128146770424406,-0.2635047511566732,9.565705628908761,0.009948468576361532,0.010229373771204569,-0.007534506193859484
9.74,0.056794293121251546,-0.1165219547191238,10.238092202558333,-0.007204377219306163,0.004791890682821386,-0.01884258822463008
9.75,0.02051916725959989,0.09432837358478428,9.65642453612081,0.021381988271837255,0.027504175105392888,0.026235972352479625
9.76,-0.21658069816631229,-0.07740863568137407,9.653334024227927,-0.00961997510010537,-0.022327068524938837,-0.029769084315915774
9.77,-0.17736738120629764,-0.2195961908328373,9.807128993506433,-0.01539544755055558,-0.013805199371544199,-0.015422878717362221
9.78,-0.11485927480735875,-0.2677083881124344,9.86645704499904,-0.03597950656004144,-0.03842189565378339,0.010601031011439981
9.79,-0.04588750585728036,0.03182691529451977,9.720529516788618,-0.005788032320121295,-0.028193699392715044,0.012435392954130224
9.8,0.018607428353884556,-0.14406920156319677,10.027432282504455,0.04107696919680386,0.013985950312079967,-0.027479871170804287
9.81,0.5168168200705854,0.23228686059650686,9.727410030337166,0.003331093451549655,-0.031943771613160164,0.00550993731009002
9.82,0.02707943454425078,0.12711922415349117,10.188253433823837,0.019977338831144262,-0.012516987544179601,0.030481606481479122
9.83,-0.0038079904068436055,-0.19563943920458557,9.73316799388562,-0.024553906708514553,-0.002158143789354531,-0.0008136458603441165
9.84,-0.1314642919757267,-0.18231356235826437,9.86069465413699,0.014910103379870768,-0.04051663447924733,-0.007637852635306738
9.85,0.07370297838988624,0.19129138714284916,10.051919730061591,0.013067954585102202,0.010828074489427506,-0.034422456891930894
9.86,0.22491411819560353,0.2074337143525674,9.999802021166207,-0.0026593355815561033,-0.006354861694999712,0.012086754198101781
9.870000000000001,0.024619544174009803,0.24137980255557745,10.009280102824688,0.018184107312765204,-0.010314394824721285,0.0059068561601242995
9.88,-0.09653424848845663,-0.21090610741639537,9.9749513114818,0.03296457392353384,-0.023949907763328296,-0.00541966298882507
9.89,-0.008800876344362848,-0.06425213305187455,9.783119310985219,-0.008349842693746114,-0.034405622416055125,-0.0018579887526762016
9.9,-0.05039412910816962,0.31098759586866453,9.925963374122748,-0.00418371682491108,-0.02127054000216649,0.011030537713593904
9.91,0.3219053171829668,0.2620033040411933,9.783614918882897,0.03840387054806573,0.012277911015258392,-0.0036382278136130554
9.92,0.07585496146104798,-0.2622522715873148,9.919302061286599,0.0252201855918005,0.008951350456688413,0.00370160757521724
9.93,0.03166956967102898,-0.2911028752526918,9.907282374457072,-0.0026943448679597926,0.015662439535680615,-0.035144786185499016
9.94,0.1601529116637442,0.1814279323071377,9.954546953019596,0.017364748995000935,0.010061634256347636,-0.01669986072394848
9.95,-0.1399208878285505,0.21473595229901798,9.731215377282686,0.0038751011052333612,-0.006897309712294678,-0.010200405249097953
9.96,0.23378796041045627,-0.06184403273840871,9.950287950243387,0.006585042405397027,-0.02102202602031443,-0.0026927220141023354
9.97,0.1850583406976572,0.15509908418610785,9.925888853218455,0.020741831673259097,0.01864267648077716,0.012860521676788667
9.98,0.27172651188545316,-0.012847763441360809,9.516547101725623,0.030260482077267566,-0.015839925800616682,0.0060327219819353555
9.99,-0.061880095064831074,-0.040246645867358925,9.780685203085348,0.010614438744559385,-0.00562975836452541,-0.013546400180476403
10.0,-0.2206850284216146,-0.1398240490207779,10.033849799343352,0.027908750215524903,-0.004940099061215746,-0.00964866005131674
10.01,0.037858141442819085,-0.5107919640265249,9.621384134992544,-0.03318713578404674,0.029214440473756806,0.026958886759436855
10.02,0.03049656301242167,0.18098128593976134,10.028653339316374,-0.017062023212200104,0.000481593626254386,-0.0032634695789650493
10.03,0.02678676205411641,-0.2751781625082891,9.773085157180162,-0.015222380453558384,-0.017379568494930327,0.0028943319397134993
10.04,-0.04638987503613377,0.07962431639284194,9.686169662534137,0.006777457231652644,0.02230564077776537,-0.02464113749936174
10.05,-0.08174191101768435,-0.0440400473159237,9.676198818531315,0.0030501377675762388,0.018935134116860035,-0.013528348170766733
10.06,-0.036995530885681194,0.16138418708923694,9.799276539265064,0.012470332980337362,0.024540099490995764,-0.01917616947696101
10.07,-0.1281214341515093,0.315180729974252,9.420924156691232,0.014520370905932427,-0.00824230088947601,-0.015867401007866627
10.08,0.27504924404467884,0.054572351840634394,9.775448453357571,0.006614932079857229,-0.028774611036734586,-0.001372017931530269
10.09,0.14310457299893203,-0.35912821069267586,10.131070837278992,-0.0008080372658626636,-0.0003790647035050174,-0.017779638669438748
10.1,0.09524247524431503,-0.10285861349652144,9.632075243087007,0.003610289794513251,0.01169634331205583,0.003413070047893495
10.11,-0.17019205736955753,0.16684467374233147,9.787070689040636,0.01096213823865429,-0.029701808567741496,-0.017817626029663948
10.12,-0.08657723509797866,0.016255931707747116,10.00127705833,-0.006675426469172954,0.021532441239363643,-0.05378626444863236
10.13,0.2994900516065701,-0.056332500317166974,9.737534514075474,-0.011304192866733289,0.02003491082815889,0.0001307145777235325
10.14,-0.39279402487725507,0.10316784903855039,9.678948065632628,-0.005518378690552776,-0.027353003642241448,0.014842180402308556
10.15,0.4179381500820589,0.04335489415898043,9.970838374899957,0.04083450105249745,0.0011853268653441848,-0.007080555855646216
10.16,-0.08772582035185776,0.1387811963213404,9.705085696296866,0.009525179595186397,0.010727088238716518,-0.012543723027061256
10.17,-0.4277741970667616,0.05694470683567678,9.86218292610444,-0.0141398782773536,0.013051313908492882,0.028939850865186682
10.18,-0.3518376856348409,-0.31715796583168876,10.078250458882891,-0.004185278661332779,0.01818857299952643,-0.01871509159140412
10.19,0.09404382200489622,0.1098295786749747,9.954675445721955,-0.021489847300280245,0.011427947292120252,-0.04790857887303854
10.2,-0.002611446505700294,-0.12372281543963405,9.759541979421572,0.00016570446623117102,0.006064874515203524,0.007312515001296386
10.21,0.013855710729317185,0.08449422587866498,10.136491138026424,-0.012626390091354687,0.004689912708300454,-0.005573689683822109
10.22,0.08521600490825199,-0.058004239333457594,9.818423029029312,0.017788219008903303,-0.0033112592628988914,-0.009836244801333853
10.23,-0.026601231916155644,-0.2728437406983424,9.747247539634953,0.014134562719575973,-0.02056301314752681,0.010644023735869968
10.24,-0.14786295463505147,-0.2346857456284724,9.643709185073496,0.0054941195845907296,-0.01674861213340447,0.008304891287666738
10.25,0.08788787071213429,0.27963654762014756,9.5963187069549,-0.030813881024681983,-0.006861952482078967,-0.012595006648441587
10.26,-0.11660109442794986,0.11353968037518676,9.614970013048511,0.02099579276620979,0.0039871634861028986,0.011359643014192716
10.27,-0.2232065396925247,0.45371592587039394,9.754171455570713,0.03585223098542591,0.018937843424486334,-0.044375773922348455
10.28,0.2750767297515299,0.055672410592048256,9.70489369029639,0.01889706014883174,0.044361500811344906,-0.010943777847606577
10.29,-0.0636871174439111,0.11891715277810358,9.934258482390854,0.016746760726785208,-0.0065250948699828925,-0.00117116091105751
10.3,0.2634167398356203,0.09323563837672952,9.630277124616253,0.0009477935896026828,0.011394911257531493,-0.019767585796910573
10.31,-0.15333539885909198,0.1202285866193317,9.877273232936409,-0.029685426498511774,0.0033005015625921703,0.006641742438934714
10.32,0.2599228597736199,0.25986575024750597,9.490133029005996,-0.008191727034756645,0.0298726312519331,-0.011432457716692322
10.33,-0.16650577470269734,-0.09384842541313511,9.752142485943416,-0.016747166516688703,-0.0342504505253257,-0.03574380824447003
10.34,0.02578503458375153,0.22387979464800536,10.020181945784435,-0.034160692270286355,-0.00925218604678676,0.0073415492081217604
10.35,0.16341540356040948,-0.023107652601835546,9.91674890581409,0.019086421117329357,-0.027832007472440023,-0.02393671191879945
10.36,-0.2552760558932158,0.07076511763970506,9.806513112067655,-0.003628225079553238,-0.024695950889100128,-0.016697247865085033
10.37,0.1327870636831539,-0.1886964444512354,9.850814043981742,-0.009470212217093597,-0.0009526235159264441,-0.03600987113256798
10.38,-0.027288080155028167,-0.1443757827981228,9.8953296751219,-0.026841590879107893,0.009319277926206328,-0.00020333878913942607
10.39,-0.24799432323297385,-0.38169662416539785,9.843102019083032,0.003235542181055744,0.03100799766724868,0.0006282182458045199
10.4,0.021546945222913137,0.10262279812813296,9.861341767131906,-0.014200173755340233,0.025550844166747144,-0.007934693336961406
10.41,0.20579394436128806,0.4070009882621395,9.889772759146949,0.014285022069563419,-0.0072812657711593875,-0.05369631890439499
10.42,-0.29690437729168284,-0.2734004293811692,9.775959216271175,-0.004929226523629806,-0.012335574634973217,-0.018665620576040723
10.43,-0.21708658605260725,-0.06581183287829359,9.756194034864711,-0.006916282819291051,-0.004622791102180991,-0.031467015901855536
10.44,-0.1012232225966074,-0.030635864816879705,9.675935980970422,-0.018790816991727115,-0.02099140765384978,0.04400912448566459
10.45,0.10923271781065565,0.24217152647771814,9.770338949533755,0.019247781344509475,0.02292764750392968,0.03006257271128308
10.46,-0.08010352322148834,-0.080534692561512,9.802902613807934,0.011585969115679782,-0.033145540504933575,-0.004333407668355395
10.47,0.16848074567333088,-0.2177070941438374,9.552319358852364,0.0051276313339083295,0.03475007585790158,-0.043089616642130624
10.48,-0.09472219233166139,-0.3103876007000601,9.687560913090866,0.024295281417591547,-0.02663506757863715,-0.00963106895823318
10.49,-0.13444889862982984,0.07058291929992754,9.773706854803862,0.040141290452927296,-0.0019085118638244548,0.006546689377883445
10.5,0.24026736169343382,0.0450220503421582,9.9579543700734,-0.011511570396199955,-0.0035281742074680105,0.052060914138542025
10.51,-0.10204692681830797,0.06193720895770362,9.871315548866795,-0.00016467551529376808,-0.008672168496791446,0.015632409566945032
10.52,-0.39653242274461536,-0.017814522313583016,9.788080736538488,-0.02310624827515562,-0.013390982610155653,0.0194713577008639
10.53,0.03859734016045141,-0.05594286014433719,10.047286436789538,-0.008835473387407783,-0.013071640351817987,0.027789780408299332
10.54,-0.31831640554355556,-0.30971679538451186,9.73016575066446,0.005567830638860677,0.02140578696887114,0.028517235916455743
10.55,0.13739625002823397,-0.031552382500749224,9.457428061277234,-0.0038725661876284436,0.010510204776402089,-0.02167552732356572
10.56,-0.09543959078034094,0.3448638495389805,9.736809937509818,-0.0016928517413266804,0.013955937738892492,-0.03977116295881874
10.57,-0.039965761670375244,0.21009032820952495,9.896674284500202,0.01276561577730097,0.007605040829299337,-0.008445887162225574
10.58,-0.004207117661558717,0.07407226341975343,9.993279004122547,-0.013688263232826419,-0.008627737634016155,-0.011909007522240517
10.59,0.2150435316684958,-0.008481414219470431,9.797554624814751,0.018499370339191305,-0.019773284432657242,-0.030213982322350945
10.6,0.1783689040629034,0.05075013748491501,9.592610188223377,0.00022770174597509002,0.0037949408775691685,-0.013079125505180736
10.61,0.30073130864944303,-0.02811017678919813,9.748891041413675,0.0010401901584715008,-0.012326746030749165,-0.008471348383368426
10.62,-0.4529997533743067,0.2427372924612757,9.920273425185318,0.013197694202337273,-0.006860128574020939,-0.009292090827402389
10.63,-0.0291782135116443,-0.19302220968141381,9.489595609114547,-0.05287283216412589,0.015262313233244949,-0.054032718257650714
10.64,0.07868635526542897,-0.02390084205977746,9.646401996918932,0.001259870336387015,0.027095340616742007,0.027246418820015453
10.65,-0.03981187378028712,-0.16416139565426133,9.857785941405778,-0.0021535030534412525,-0.012817064705491576,-0.0469685799889106
10.66,0.3952442062312461,-0.08432697702319983,9.650144506578856,0.0073378111056742225,0.011881657078760922,-0.0010171218855429462
10.67,0.23262149556024625,0.06253153193300615,9.813765954565483,-0.04986521875716789,0.0032400898319366322,0.022320406623550112
10.68,0.06464627179138029,0.3490296461939886,9.986983755391325,0.010925665741048389,-0.002984698065009935,0.00035570534923295305
10.69,0.08724195093471362,-0.15642365421541649,9.938323002556025,-0.02160470676130466,-0.007210158485544085,0.059268287379223614
10.7,0.03700802319331199,-0.10452700954014157,9.857218508771464,0.015924339041668144,-0.005306878212754869,0.01910661508227642
10.71,-0.1843656998638375,0.1844213335461234,10.049162470825165,-0.04318378077851436,-0.0047713581943080495,-0.015997556517298013
10.72,0.22667041292605977,0.15215125873605753,9.913536650301587,-0.012855823691978687,0.003355990525971042,0.019649304682175555
10.73,0.19510845841408686,-0.035841817537398214,9.783461173997916,-0.026254299884913467,-0.011221796342871675,-0.040772558465389984
10.74,-0.15995596788860814,0.054476683524955556,9.897563852855058,-0.015370609626013021,0.04664227829073612,0.01307714326872349
10.75,0.0085019254330393,-0.22337866454831287,9.871157501373274,0.016272727003595135,0.0001346902639640071,-0.01861440258772639
10.76,0.3057324747959024,0.09276784144629494,10.242445145846066,-0.0008379198680564186,-0.013493093088031951,0.004361367306778999
10.77,0.1504541732187866,0.23726815246510155,9.90128649929863,0.010098993477571363,-0.004033599989726148,0.016547636409336795
10.78,0.10109769513772739,-0.0006926631199184202,9.56664752063956,-0.013357128183373285,0.019706691906827754,0.019949456278097803
10.79,-0.25490592473799206,0.03203221633255148,9.703749613090746,-0.0007866353956769896,-0.0029374731213293987,-0.04824813580364887
10.8,0.11619603182626242,-0.21349441445380762,9.551647414877367,0.02965285020534751,0.011934446436454995,-0.0036914232306059125
10.81,-0.18466744522744455,-0.01928582739779564,9.908474343445388,0.008836610762749704,-0.001533870278353245,-0.032894962238714597
10.82,-0.29285142283074567,0.1431628905157228,9.749838776311664,0.02601051926335169,-0.023542315028141712,0.013873289682177405
10.83,0.25711060850618356,0.0200247955954398,9.76934099691352,5.3224312978628634e-05,-0.013442885702137254,0.012384305263002056
10.84,0.11838063446954636,0.060983715069576575,9.837424347104374,0.005648945752132113,0.0024515803938469603,-0.00042011853163369267
10.85,-0.1463967341954834,-0.2244996578636879,9.893553950467492,0.010527641081786497,0.03582764316419651,-0.0016526311893854098
10.86,0.3597630489334606,0.27051186048505443,9.567927810393162,-0.033702895344697496,-0.00247888158457433,-0.03093859264376066
10.870000000000001,-0.11193227007245264,0.17464614780289975,9.623709816640154,0.014931884424138397,-0.012722653782817306,-0.030352935836329795
