t,ax,ay,az,wx,wy,wz
5.47,-0.17833668402959413,0.10367247930655751,9.697706684216264,0.03702147087887989,-0.017213487349630862,0.015191664452794334
5.48,0.2951057009121404,0.055472146305020516,9.996133274922405,-0.009014632307388833,-0.0050705990277668846,-0.022105485177155222
5.49,-0.38784299949772816,-0.39134360551116193,10.97335290268533,0.0107345623235526,-0.021321072878208697,0.007820538342934143
5.5,0.19573798448263785,0.029375416845627084,10.369085419702367,-0.011999390349573815,0.009387573688896055,0.01754821700140366
5.51,0.1721364232741361,0.36174984028938545,10.299084069792855,-0.017426626286038922,0.017157918226654873,-0.0006757254937231188
5.52,0.09424742480718998,-0.11293625522784362,10.582182010493039,0.039492157290019675,-0.013005854071958868,-0.022810202143195492
5.53,-0.058458592222719194,0.32524464671027,10.763571367147508,-0.023335608752628533,-0.011806210490319675,-0.029362685337853602
5.54,0.28937000445787725,0.08390037561607683,10.526329625647932,0.025816146092506237,-0.007985711699147581,0.0273379626541439
5.55,-0.032551427897849136,0.09811017232095882,10.204586210950763,0.023088660947363927,-0.01030620515602085,0.014666759001681618
5.5600000000000005,-0.43538510118313345,0.003519172777139262,10.409614924309064,-0.0014661766007963695,0.010681382542785604,-0.007675665631357193
5.57,0.2870370873021286,-0.012249051690898103,10.568620312036836,-0.004548000043519014,-0.03094626016078961,-0.0055779992701736995
5.58,-0.1368212694304786,0.0032625698404653443,10.826730119158217,-0.05540358583628717,0.01892937777138863,-0.023854342054075262
5.59,0.019403693688890594,-0.08242152887690013,10.182067964294202,0.01326527057285622,0.028557250902571028,0.02702411475479042
5.6,0.1877500171799097,0.370583708445119,10.397407222145425,-0.004697198289485411,-0.006873170820327877,0.0038067492236186435
5.61,0.17713114749061265,0.21225993708903043,10.164196648652867,-0.002439911471360083,0.007602652912281786,0.011499635644414552
5.62,0.025240004702756332,-0.14137207902449594,10.031736528503256,-0.007875994928977767,0.015090158883159916,0.012525086705197992
5.63,0.18495686723704974,-0.1548978561231531,10.198476216311624,-0.012691365282260622,0.019349120469318744,0.025208990236084444
5.64,0.11841317861771175,-0.1065537768401705,10.284174351781283,0.031221394754429525,0.003997735782170088,-0.011444210203659834
5.65,-0.4928924221766846,0.07586260702263883,10.089801907870012,-0.018152218998623335,-0.0016805193620696988,-0.02000981828864348
5.66,0.049795503319551654,-0.011085467313740067,10.338202245876245,0.03222534799037062,-0.01616208132498579,0.014472858171617566
5.67,-0.1020757923832103,-0.1030796401550701,10.234267299750387,-0.06905201051329247,0.06684135303938687,0.004018483139215874
5.68,-0.02294809765701286,-0.06620674251213053,9.687903419598623,0.035818714650732934,0.02143399961185534,-0.021152671409628968
5.69,-0.22068817907929308,-0.037253410808957124,10.404415833694877,-0.022193553829032785,-0.004641175541442385,-0.035466589288963186
5.7,0.10665446974293012,0.29379835920288744,9.98514353003295,-0.006598343380206718,-0.0020392376698953212,0.009956106703187598
5.71,0.08210295611013835,-0.10546989086314171,10.117013326350431,0.0037510993160536884,0.005475862465887154,0.030927532848251286
5.72,-0.09136545978279788,0.24961544796074114,10.35849706449704,0.006620183292614876,0.02109657266511345,0.0036942703661546786
5.73,0.29446415937948367,0.26232635167489715,9.937243055239808,-0.012901909963554375,-0.029567356993037627,0.028035544784933877
5.74,0.21587570962909283,0.16405340466475354,10.001442870296096,-0.026652148727588674,-0.015270724669229678,0.013960599345812383
5.75,0.08466093121845587,0.0982791516681899,9.93296079387218,-0.00783206929738781,-0.004711659568331136,-0.017822369180162896
5.76,0.04231940098519229,-0.11067916745888198,10.040891059626107,-0.007095129444258966,0.0036522759253252587,0.018125168849645122
5.77,-0.11600264387363066,0.38556815803759137,9.97904379656289,-0.0035329358833376167,0.0033522891904723537,0.002595156351232962
5.78,-0.10812638612939063,-0.30485020435778304,9.975926949255166,-0.0058458973792592794,-0.010355537922181496,-0.003042590528162511
5.79,-0.01131916287485409,-0.10153686247938785,9.771855058724649,-0.006302353851744868,0.023241032606398804,-0.014499707985827304
5.8,0.2135782036388974,0.16561628169143372,9.960699884097298,-0.01561409780363036,-0.0023639902492356957,0.0038259728362794276
5.8100000000000005,0.32985048642802334,-0.023983061414513077,9.929773864018545,0.007615909341384953,0.0015181204991268889,0.010396600280281054
5.82,-0.01703680892674087,0.16270778098069566,9.914995739417952,0.023479925032906346,-0.008899485269534522,0.00032934306076113257
5.83,0.08493818745279351,0.25401896602358,9.939400188036217,-0.028305494549050826,0.03929922754614411,-0.026218045622956973
5.84,-0.0727737634783709,-0.17424635388930843,9.958956888741554,0.0003578940217810297,-0.016841054876879636,-0.008769923962643917
5.85,0.16322980423196426,-0.18556415422428085,9.539183079048165,0.01503553892029226,0.016801793010416483,-0.02211056479229488
5.86,0.32466603906789177,0.004439308014236864,9.674379819301537,0.012731625274672797,-0.00018588460597732492,0.00586777325416585
5.87,-0.03022714993697678,0.15878411907391618,9.884887795312054,-0.020586002575728894,-0.015077357506391317,0.003926801556835884
5.88,0.5558842173644544,-0.04281383793972244,9.9310118505528,-0.008227377002182899,-0.020324026642009274,-0.030293808517664125
5.89,-0.2129331317518476,-0.18772120519354388,10.201352076327652,-0.04314691412791676,0.0021790086528864034,0.011075409408609727
5.9,-0.017662926987560567,-0.09545682997798387,9.878856452818878,0.00888230805276692,-0.03529627597734381,-0.01624816499147509
5.91,0.2614975601341445,-0.06326791939070654,9.84776218286802,-0.006429227806618427,0.005787008981959521,-0.016340015002716746
5.92,-0.03173303223655035,-0.03692648960816026,9.746796684411049,-0.018088854042084167,-0.03810185610976913,-0.03208524645421694
5.93,-0.6595455846381967,-0.12856530998799287,9.515930785712674,0.0024886952270225695,0.012415518040941409,0.005312396261904281
5.94,-0.03790291801680145,-0.21901287028597607,9.478907221476968,0.03275781180286384,0.006780308632892041,0.005369520730864642
5.95,-0.02811992358293827,-0.11704449107877142,9.846627680613413,0.008956231032118489,-0.007022829747974635,-0.019166843890590958
5.96,-0.14674754836432405,-0.10911948277819357,10.044158475201487,0.0073461245826473235,-0.03194529270755531,-0.02245041110326514
5.97,0.20329834042886696,0.00892161188783346,9.914138707119404,-0.0004737300214487094,0.01675056165231848,0.03087356638149132
5.98,0.11989304170791773,0.2398584513391513,9.22704802138156,-0.021204303181992477,-0.0034540861569387926,0.03985623099855295
5.99,-0.047300902027789034,0.0894760047940914,10.030257062553813,-0.010675000435117979,-0.008460700129141194,0.01960906573144854
6.0,0.2411765752391078,-0.028554081336937466,9.595713160009312,-0.0032114516734699054,0.021358622494923103,9.862853916113087e-05
6.01,0.2785817241524399,-0.19860695153263683,9.882448373202733,-0.025691812958959087,-0.018723602112614555,-7.188058400616891e-05
6.02,-0.0746578663468381,-0.16581796436845173,9.674329098996154,-0.014036597210729307,0.007771860962309953,-0.00406276779530575
6.03,-0.20530457671547733,0.008922281897335807,9.818899869016937,0.014370233506923565,-0.009149613631357188,0.003494109965651158
6.04,0.14355158072376806,0.1597864590033666,9.725902795108734,-0.009802014380929903,-0.0008738195656726762,0.04930822287264954
6.05,0.34657435454795177,-0.25421943899728555,10.050519008935506,-0.02927703629062193,-0.0041307285661455724,0.017078606217239767
6.06,-0.0003736942296704889,-0.33582896521940536,9.699754124797662,0.018075906755524854,0.0372052668496932,-0.017437994781355586
6.07,-0.2250611150032735,-0.10963797378763461,10.001200888677086,0.0752044216880783,0.032787366152547,0.019128076340792822
6.08,0.24650464947117773,0.0037414149568254667,9.599796057306259,0.03590863978447084,0.025405921337072934,-0.01868986598424549
6.09,-0.2863827806676024,-0.11441726109816294,9.810032845230058,-0.014318398941556343,-0.01648898792785769,0.007960610057808192
6.1,0.05523495403992013,0.09338368973278897,9.884739632051392,0.0055213789307177125,0.004667533011584758,0.019285396473101093
6.11,0.3960206368040272,0.0989199308983858,9.858244690574065,0.024271058428019347,-0.030972159024035134,-8.550547433793815e-05
6.12,0.11252062395104201,-0.04200197086464243,10.005736965697597,0.060469082614314607,0.00766201404248538,-0.018187946437359805
6.13,-0.23328425892481927,0.09997163742538741,9.708782838403943,0.002489845587024648,0.034214314344707154,-0.010094530819683256
6.14,0.1123416493656647,0.01139036062934933,9.910395246226932,0.018766896961382652,-0.016532995282319825,-0.023298264973635536
6.15,-0.37110652885820616,-0.13180156876663113,9.612556068679341,-0.0027509607849493063,-0.03801741213094891,-0.06605090237854686
6.16,0.41685092764525156,0.3951825595107436,9.764728481434913,-0.035323873077826785,0.014903150432218557,0.03489656759389198
6.17,0.04206147658013067,0.03706580446543981,9.966912329259689,0.003990331855574518,0.008581931281630492,0.0047005939149497794
6.18,0.026292255537507633,0.08519911706625527,9.88036762201569,0.027847554401049277,0.005709270500527397,-0.01581938435029777
6.19,0.15758811353670782,0.03420338691317673,9.600314978227905,0.019396864940369334,0.010964729854434141,0.03165901428754537
6.2,-0.10670256274084258,0.3189298060717223,9.520938679536737,0.0016780098682990746,0.002154827119388164,0.00647057290418175
6.21,0.07323397450437681,0.1916763699810504,10.04637799290037,0.030740166743541866,0.00020083036669549953,0.00409893277682133
6.22,-0.10555057546928424,-0.10213473712502927,10.00563040453456,0.010593776065300221,0.02121637167135257,0.021758128533327172
6.23,-0.009476467184128529,0.26053697008470017,9.98534482535037,0.02463646515120665,-0.00922914120261704,0.000501188153685593
6.24,0.0016072094634590793,-0.04273146092839525,9.856344967643833,0.017486217103221777,-0.010024038618693689,-0.003086648791564306
6.25,-0.0632314251355847,0.05734240576391767,9.91542808756632,0.02861875212541206,-0.0026975392203426683,0.05595545872562122
6.26,-0.24142052961190488,0.12194300773952721,9.625641445196315,-0.015671084526298604,-0.02474866456091884,-0.021878802207424823
6.27,-0.1760514564681924,0.06274390050275802,9.363105796018463,0.05213125811189112,0.014571356010865982,0.019651734836924246
6.28,-0.3381071361192275,0.23610639611260387,10.21519636803694,0.01362691773497349,0.008270318711220886,-0.024004999152357306
6.29,-0.12843281079868563,0.1524273849122092,9.627342501184348,0.015258899403892327,-0.018859857635344198,0.011808625721248895
6.3,0.012462612374482535,-0.2170444501000958,9.354557437145719,-0.027671173831935972,-0.006650912662271055,0.041325802057492735
6.31,-0.031023723502004,0.06969151511178573,9.752622891897406,-0.027653128278534413,0.013025944857913993,-0.02754527583597065
6.32,-0.18600674639297893,-0.45805412889183017,10.041989482114985,0.02517971652246079,-0.041545294670875046,0.0075937135015780475
6.33,-0.18256532980570872,-0.3809121346603532,9.7050352187786,0.00020075872531148762,-0.038603765918958234,-0.00824109151568524
6.34,0.02923069751339426,-0.006941761806332931,9.990315903042056,0.04013121399968767,0.02925829057360124,0.0340524939284141
6.35,-0.011990041640676583,0.017026016572691226,9.612975498768414,0.012097505870646931,-0.017183329947824656,0.033928391003126133
6.36,0.034918064778286434,-0.06506020766015998,9.265714752429588,-0.009591016974889406,-0.038849140247675266,0.003387184446825934
6.37,0.01859853812000786,-0.06125109327007091,9.832886793142972,-0.011342759838766996,-0.0006018365608603639,-0.04088119983621897
6.38,0.06193309844785683,-0.12352625766698712,9.635962807734668,-0.0249177758306803,0.01560545712373146,-0.006721557691364715
6.39,0.3390657887783946,0.07544818064447181,9.724808492222255,-0.019537837689771093,0.01332790856182132,0.014348288983114115
6.4,0.20064843388223422,0.11063705780486255,9.69506531975639,0.007956774689969592,0.016795424302314583,0.010277655231893949
6.41,-0.05489466262392861,-0.3912020884871641,9.976242412152182,-0.008850627257695748,-0.013233764893474635,-0.006569461972871176
6.42,0.001187254272546853,-0.06640491388158687,10.08872044413736,0.013414652092908506,0.012310214057934253,0.021067734748085733
6.43,0.013813285258702311,-0.015351503672266877,9.931486215782908,0.007583654954569662,0.005658045770233311,-0.016870388580150823
6.44,0.01876823770250717,-0.06611349987350777,9.766245784557297,0.023127963835440263,-0.02260629641932847,0.00539118428210215
6.45,0.22914109324070037,0.24517890837400466,9.355346981673272,-0.023444915562235394,-0.008094639578854493,-0.012763020007092294
6.46,-0.3333668825390265,-0.010321954798504073,9.470913980677105,-0.03593672468553416,-0.02509453280554074,-0.018409949575621323
6.47,0.09810983244370107,-0.13959715650141333,9.991953186810417,0.005529445981562682,0.02866067846824399,0.009727244051286816
6.48,-0.2834424924095583,-0.15137487702562033,9.966369975420115,-0.015284363500855372,-0.025744404734433356,0.006822926346053408
6.49,0.15853205683885607,0.11304599796276467,9.633295268757022,-0.022281540732803598,-0.030453790653420684,0.016604706503900623
6.5,-0.03028942109917356,0.11301206997138279,9.873295304861346,0.002965548400398445,0.002543232497972493,-0.002184079886427337
6.51,-0.15440867769311095,-0.03895163134750467,9.887887432059676,-0.0016703924913908444,0.006693745698641697,0.013194893558484022
6.52,-0.019840610551474836,0.2273184096557015,9.627954693181513,0.016930945423066696,-0.006037891154142827,0.03545071908572847
6.53,0.14685280409108017,-0.0937503852024165,9.71218480228911,-0.014613180237174313,0.0010576992284427047,0.02144653238968974
6.54,-0.2764684165146923,-0.08242567620236516,9.97715215334879,-0.009301863679162605,-0.008801401292675868,-0.01865254934413887
6.55,0.0201243663588964,-0.1501665532184967,9.404672050323057,0.0051063629951774905,-0.006085354750918173,-0.009970170196508704
6.5600000000000005,0.25292822916000135,-0.045487299946498375,10.21584457784712,-0.011308530366347052,-0.017754606543795008,-0.0026732717127514165
6.57,-0.002510443288732972,-0.06350679483579903,10.013082863761785,0.010267652512713808,-0.032201631109485866,0.0022675056038190095
6.58,-0.18794828403182723,-0.32937962744908794,10.010174768618697,-0.016258934069171622,0.0023425863878186915,0.04121626183027611
6.59,0.18413926380845946,0.17293999298720505,9.704115533268663,0.02204730733365055,0.0027394517130438566,-0.028860000586283557
6.6,0.10263402741971002,0.002103806562429295,10.004658114469187,-0.02817566454164112,0.008548160059481742,-0.016072384004836994
6.61,-0.3217818875965349,0.13348137123176723,10.023309293160594,0.0033500313023733467,0.0028322474171699813,-0.004679226300746075
6.62,-0.36588547423460854,0.07574254261933354,9.87488010570681,0.02128670287335419,0.007599679945615334,-0.01614536361877604
6.63,-0.1634410688975911,-0.12815759067687296,9.892732781259415,0.007793985508162163,0.008650218812185334,-0.0005123735664554779
6.64,-0.2433124443532273,-0.13406198364242092,9.868036677193272,0.02671361786170548,0.01207264259213698,0.027555998503213303
6.65,0.15226822599584547,-0.014246931675723901,9.68019620118781,0.03659444657405089,-0.011834152580352877,0.0062737510698538885
6.66,0.11097515960215139,0.019257339976055075,9.290802518369665,-0.017225697128824935,-0.0018996105724951502,0.02574432221677581
6.67,0.2008924723881309,-0.10256111537806804,9.603198533498096,0.05429476256126941,-0.0008080546535278488,-0.0023520237396965358
6.68,-0.13422527193659836,-0.3060332544394593,9.518261371658378,0.03249716582844611,0.01570490254938405,0.015640349811247914
6.69,0.013865872099544686,0.16164766041293033,9.986288961618845,0.007165817752661279,-0.00991018885791024,-0.022858408649015824
6.7,-0.0790596929675795,0.035691293062802394,9.577890754710031,-0.028744364159170012,-0.007654262172236675,-0.045016103591167
6.71,-0.05368273882753202,0.04198316080429542,9.863232566037997,-0.010840568786395468,0.006161408270008902,0.011505105300797156
6.72,0.009737712918160129,-0.1516273185300395,9.635053844189745,-0.005704317300811776,0.008095751965490287,-0.011566922721180295
6.73,0.03887841152920229,-0.007239801740282158,9.839085419353477,0.008202526393596076,0.01316586526427352,0.017105551234676095
6.74,-0.23790751900934162,-0.07567919930494887,9.725274969964907,0.026127891200947436,-0.02481310884858723,-0.014605247021293103
6.75,-0.03838389657221969,0.1389969410526994,9.94579198599553,-0.01171343483958458,-0.021271480948094175,0.009753168534268936
6.76,-0.09841541196925598,0.022411238926268062,9.858626899166195,0.03203461801361736,0.00961871643293072,0.007468680522733712
6.77,-0.05482813216073743,-0.20496572654661052,9.354917522076786,-0.021665099842506284,0.008733403478923006,0.018622026245050986
6.78,0.05215477970290226,-0.07479369042546374,9.657728081388719,0.009291588404404468,-0.04020573556135228,0.037065789193457134
6.79,-0.22038311750871784,0.4178071794574255,9.869433092420124,-0.0036181902341875277,0.002070877949216288,-0.005831901992232157
6.8,0.021789536685587977,-0.05366452947212213,9.441079564094064,-0.03464258326474907,0.005010754463255486,-0.01594192757747448
6.8100000000000005,-0.08147810554352683,-0.016020561930929215,9.874431007588639,0.030765261284462036,-0.017902438209463096,0.0264749463852251
6.82,-0.15644208668023019,0.20879363890334326,10.034618738637993,-0.007383870408778086,-0.004501411245133587,-0.0068696186742398906
6.83,0.06410602517293022,-0.13865450917563418,9.617090397438837,-0.024338359749509274,-0.0070197517137295055,-0.00921157073421044
6.84,-0.0415746382665387,-0.07569044469611912,9.91565116171008,-0.02435528469035331,-0.027699391924130595,-0.008885393358723955
6.85,0.18723524977353442,-0.06634470359534234,9.740890167852559,-0.01564969567461803,0.004496869076504924,-0.026195872836149825
6.86,0.0938330000516275,-0.016465593416793125,9.387290958642126,-0.011260789299001995,0.02287653390815023,0.026381492394579046
6.87,-0.07551465895733296,-0.02621915180979622,9.931012375432363,0.02404252533531155,0.01352931549221421,-0.028057178616631005
6.88,0.3514388334274414,0.09383719680570538,9.841322071116586,-0.009224316186170757,-0.011562725110072343,0.0003206089212091043
6.89,-0.10316618079731774,0.09003905339181957,10.230709690360866,0.008107484860691723,0.0033976469219775657,0.010767840509122155
6.9,0.11207785421002694,0.15252571408350718,9.961074062315523,0.007016366890495194,-0.0044073009222264205,-0.019681417139236716
6.91,-0.2584324091595598,-0.24229483599938073,9.531385907591876,0.005681870433414793,0.015531086290396887,0.01064761397816946
6.92,-0.054071351179262934,0.036161037919819033,9.32595884860899,-0.0035738296432421997,-0.00368432691339356,0.00828183305200635
6.93,-0.10826463902229115,-0.09044288852840185,9.916444086389385,0.054098599265748074,0.025020136446744837,-0.009802382086589198
6.94,0.11407261205973669,0.18560784871124664,9.644787501428157,-0.02177705679543633,0.012448471574245844,-0.011688391840700443
6.95,0.13645434012626545,-0.15340960802017622,9.860210385729747,0.010220882117144739,-0.015420115340630647,-0.0018388687332831358
6.96,-0.12684138753400756,-0.15669520293688455,10.139368060176318,0.028104588284091778,-0.016265541478281784,-0.00802481165091758
6.97,0.11425380610673574,-0.1581290043891677,9.821498262201679,-0.03800852188870177,-0.017798708024828302,-0.004725608647549724
6.98,-0.16225715019959133,-0.08927784171903777,9.79812019565338,0.005562554785148151,-0.01861439301773895,-0.02089633815844688
6.99,-0.46486192987832237,0.13849108334874238,9.97455423942333,-0.007826472537884606,0.006232560001582949,-0.0022426061822573514
7.0,0.12204212079149711,-0.10120091085578883,9.8664325090475,-0.016167930539252966,-0.010976730735176205,-0.012832133856114916
7.01,-0.26044730945412076,0.06809700765451039,9.305378527436037,0.012260308399046788,-0.027615176127856543,-0.01323356335890409
7.02,0.13570182346997678,-0.004479684616086479,9.589993250940577,0.009978137215660597,-0.0028512351253732254,-0.03954428497960153
7.03,0.003227149626734526,0.2405912489691102,9.34271018772386,-0.01963309615177325,-0.023262469641387135,0.016014334648177957
7.04,0.1775180119705833,-0.1648449895122668,9.777859689004982,-0.016755658947507242,0.0038053130595441867,0.028339881447222985
7.05,-0.11521422955761017,0.14636585462731744,9.715536194456154,0.04440276898140595,0.014617176619517955,-0.004660762698813839
7.06,-0.0542153167973912,-0.16889319875379175,9.90448019785615,-0.011997299376781623,0.016253284282359642,-0.013717064487500673
7.07,-0.07557866799399372,-0.18089471370465027,9.497367556628728,-0.03954268440705053,-0.037296696158940705,0.02618469929769326
7.08,0.18724617522481737,0.021849612233820787,9.765411343392923,-0.0014784564744389776,0.0017557409422366383,0.013503755488281833
7.09,-0.0349339902840807,-0.036272089420379405,9.877275275272261,-0.005384509684691706,0.0034757491056164234,-0.00873545215101813
7.1,-0.11955397221884985,0.004974739950683816,9.498258106576086,0.006059615535630105,0.03968876287963782,0.012644129986768839
7.11,0.2780837491583941,0.08673767641471467,9.792165204026787,-0.009210834378182304,0.002903891697742287,-0.025182741959394052
7.12,0.2068826938370358,0.08055619911093416,9.906978033641453,0.00791066996984276,-0.00042498335233331224,-0.016128620980275347
7.13,-0.061132887475348736,0.012221242687259559,9.410592749738065,-0.0036765435169170747,-0.001862828551225926,-0.009098939377574451
7.14,-0.36349677896093197,-0.10924502022946539,9.541633623717651,-0.01994202329967841,0.04731670545660438,0.03797252666135987
7.15,0.22642500358158432,-0.4433191494667463,9.9275350047908,-0.00040032904533601353,-0.019537810663926687,-0.0006998251407556469
7.16,0.31360262192667804,0.03419373500685941,9.768673854247393,0.03805842739705275,-0.03057968821137354,0.028808584870298783
7.17,-0.1613167654278021,0.03472119642946247,9.463961354942125,-0.01239960801773435,-0.021091833470914905,-0.006521788183162596
7.18,-0.08007473036251198,0.26223603454270844,9.546121514860687,-0.007334697612870246,-0.0012784501203986567,0.02106198306502124
7.19,0.26985374050191663,0.07071186919110577,9.641405012014898,-0.028380095107417055,0.013861921375497037,0.021616770942204398
7.2,0.09219573913552342,-0.044093804659117365,10.012502842706777,0.014644468590746732,-0.0022581531309160442,-0.009893194367429253
7.21,-0.28648608085580607,0.09828329529321093,9.634799533951403,-0.013468807504772447,-0.023756960796594433,0.035480607299339155
7.22,-0.2615487949099891,0.16841646268888835,10.18020608800633,0.013224783971244457,-0.014702484307925902,0.004922118057186216
7.23,0.16823624090466538,0.17660160391849497,10.044138058194966,0.010669076379161169,0.0019291213194723635,-0.005036568383705841
7.24,-0.07768098340976702,-0.28865360038571364,10.010314626031173,0.0077566262525922075,-0.027690513579006107,-0.007822684599364473
7.25,0.12212815845576289,-0.12162009677459709,9.836708825159796,0.0004221660815913253,0.012992864653442468,-0.051248040365937116
7.26,-0.4284229857180705,0.20629498778755034,10.107464099274273,0.005343639261815458,-0.03459660874678729,-0.015699603059880995
7.27,-0.12233461048775694,-0.1164835805010015,10.021838355132989,-0.00111337176125383,-0.0020379480457385158,-0.06756587078355757
7.28,0.028290814252734924,-0.003942587313970492,9.875339448853744,-0.03492442379145929,-0.025064192991930117,-0.03369309685970039
7.29,0.0322967977843742,-0.17535518892132868,9.363414641924173,-0.019145199488087135,0.009915629141753604,0.011712909917556023
7.3,0.007239885449342563,-0.29271473300859946,9.586548417024057,0.002538133517772992,-0.0016911877538753508,0.03710149903524722
7.31,0.1635230927795277,-0.02740644910706827,9.940556941903585,0.0034203513077888472,0.012976024936930992,0.026561876714430978
7.32,0.1593373947992916,-0.16832715914623472,9.752728584007052,0.009084277793156402,-0.0034814410357543297,-0.006367517597057293
7.33,0.05395384618083666,0.021596482760192014,10.02665296074048,0.011878411190612033,-0.023606410838780026,0.0163076638572189
7.34,0.07586255591160919,-0.0726321628865716,9.96034928377741,-0.0326950950315196,0.01920514237274282,0.047962841648111966
7.35,0.10317586742809509,-0.2089839345815372,9.589857059757758,0.030554346128311323,0.00320287892595484,0.018089437606422912
7.36,-0.17407838052861627,-0.022743348459721202,9.218444708566,0.003514465620737115,0.003061225586564501,0.02649734331855764
7.37,0.13974196773169967,-0.25310430842745546,9.690264518051361,0.02400740064749991,0.024528317565723646,0.023650201723670803
7.38,0.018713726184572524,-0.19401235782493187,9.563449398580856,-0.01559133077537981,0.006072577983078348,0.007691791489504886
7.39,0.24735919201150933,0.022132508105684536,9.795566589178023,-0.003815442269789723,0.011288075221674873,0.0014074022256610286
7.4,-0.05760511823306721,-0.0507999632318794,9.865624599503825,0.004401540745023158,-0.021890467888010797,0.014552780500334032
7.41,0.3208618004767103,-0.006903176721680053,10.419098054273556,-0.0180760000970727,-0.014420854912846516,-0.011010141179687401
7.42,0.29335571668116306,0.06706512414359168,10.0897300922073,0.020057835298953823,0.007655370668739715,0.01979021479364967
7.43,0.00601315606706257,0.15976683962622987,9.853980066025894,0.03851554703419884,0.03691685622749221,0.014343286406209075
7.44,-0.3380929836594512,0.16093901948098985,9.603231049924608,0.031224800596802865,0.01840563908066464,0.0013785032536336654
7.45,0.2739965873636473,0.202006918588789,9.81739698910469,0.013098722028874155,0.00403116021454349,-0.03688016249816948
7.46,-0.2060298656839356,-0.2320129368556738,9.997044602329924,-0.004760510645963879,0.012896286667214457,0.019725871153226517
7.47,-0.6131905574839986,-0.1259270617370633,10.07037458820566,0.007215466514003929,0.002517763768426234,-0.011506338635031527
7.48,0.1276019978674264,0.14259107740074706,9.975779607844494,-0.006985740912056001,0.029741379057041682,-0.009260379959307471
7.49,0.08953863667643752,-0.2562178324155825,9.880971064543285,0.018176500483863055,-0.013590083187376614,0.0014403292594854613
7.5,0.00393905524861205,-0.0846086372507091,9.6768559335725,0.032357513788473374,0.013909576169402329,0.0021875049146215624
7.51,0.16297590465423195,0.07630711735940357,9.772492815330539,-0.004161084773613094,-0.025676408045125377,-0.0057430229318882284
7.52,-0.17254328694956403,-0.030939599571252353,10.151042925944322,-0.027035997830521623,0.0007201753100079629,0.011980133696838636
7.53,-0.006177578479561818,-0.16379174450145498,10.035758691046391,-0.00053763989899977,0.03743616141254915,0.058968096218834545
7.54,-0.2850692482894572,-0.014511843135731495,9.908696754498726,0.008421196979141284,0.029551519942735582,-0.013441796873360822
7.55,-0.3934261087065761,0.21925045467158227,9.829435555222629,-0.03891367938110062,0.004213636934203505,0.00028025709142710646
7.5600000000000005,0.22902775053826321,-0.30077734002855844,9.807174160459674,0.01096108146685966,-0.006568312137503033,0.018947637790625572
7.57,-0.03212092562817032,0.10198075270240613,9.465235237895532,-0.02439076926512006,-0.007810052724732836,0.01811550157436529
7.58,-0.028868665847083717,-0.21517006793382754,9.481223768817898,0.023103982288414933,-0.01739010452395638,0.002099449484309658
7.59,0.10267870977063902,0.13115021891936857,9.960104526089154,-0.0013024110086983323,0.012581723152624381,0.016269665359612117
7.6,0.043830881794243486,0.055559315810860536,10.028645835450982,-0.006552669025079579,-0.002624249750436461,-0.004957702935134304
7.61,-0.10280171149112219,0.07217501448472143,9.531162165263115,-0.005724921280757961,0.04217683019376031,-0.021249236536383054
7.62,-0.20687010617952528,0.3213568677045113,10.099429124332188,-0.0038279563134252154,-0.0026837960667837196,0.0009924876169130387
7.63,0.10734867943067762,0.04103001769387233,10.08737753435373,0.011452911691683849,0.01838458018016494,-0.056129963324786945
7.64,-0.2543273312097455,0.041561635460072056,10.11340628136941,-0.027417294908413315,-0.009992728547460866,-0.016418384739017293
7.65,0.4142078327519855,-0.19193491787999736,9.509172631551285,-0.024630540450221314,0.024980276187783774,0.03435252426151082
7.66,0.043434963416285735,-0.2875749430600911,9.468177824165222,0.015500353761063894,-0.00588745428331403,-0.010894346396897956
7.67,-0.1266757998813826,-0.08138921241987648,9.898768316691761,0.006598142769698191,-0.02651575914173401,-0.0026844658065639957
7.68,-0.10198721081045459,0.07618381696975356,9.984953930164126,0.004942815968409849,0.015944655358852568,0.009805300426081317
7.69,-0.09463927307855187,-0.11192436699488054,9.766446380607187,-0.007439924640155934,-0.006851414686775554,-0.0066450211139209405
7.7,0.16420757528120367,0.04257212066659042,9.429527405493287,-0.0068991235161929825,-0.007574065140145253,0.0026152859714042563
7.71,-0.17605846228870106,-0.14513390778414093,9.364133195255368,0.030194999667790098,0.02182411286863614,0.02184925711950776
7.72,0.39426741704666307,0.033404236506010244,9.813721071086322,-0.0002125748773231216,-0.021820899570180977,0.004752936562702667
7.73,-0.0643761251400925,-0.026017942238629715,9.249543912559206,0.008913108586029266,0.0031089025467535628,-0.009684589363187583
7.74,0.2831298994533955,0.3316041066981512,9.721229221762405,0.013112953464607575,0.0029807699461002575,0.029585427076389642
7.75,-0.09080042517336145,-0.2559239174175253,10.044197884316263,0.01464175572593118,-0.01157169776552933,-0.019165198090261345
7.76,-0.1779332161634196,0.05038071797619525,9.524958596453658,-0.015202751677191796,0.03473989783426097,0.03339265617247542
7.77,-0.17965093576394633,0.43945708283787066,9.870202172178312,0.00864531724869245,0.0007303138828777721,0.0005161313736340991
7.78,-0.21266188741867972,-0.07295696415286865,9.796252397637389,0.00974846355550026,0.03567307646862381,0.020479648747457554
7.79,0.15107599895939813,-0.018441738864925655,9.503195782286388,0.0012047797156555509,0.018226029607941136,-0.01771730946948329
7.8,0.2845826482670523,-0.03395612423926606,9.819458879616167,0.01570163596027538,0.0005223436155385564,0.02767704194067142
7.8100000000000005,-0.061909078458786716,-0.08248049021801195,9.748046051021593,-0.016819042217278375,0.01249809924013376,-0.00693026146084711
7.82,-0.04741968085446315,-0.13120604619721923,9.88283346462847,-0.00727336718632432,0.006045921690947681,0.0015587440896929912
7.83,-0.023516369309418087,-0.011164897181809484,10.014016009811002,-0.013423944194667128,0.004684096053904342,-0.03166166430433439
7.84,0.15645094405698137,-0.09494609073856695,9.747910296514124,0.022313709197495733,0.03762075529994203,0.03686027205044586
7.85,-0.37367658652685504,0.0614901051299075,9.784033700769594,0.0025620512499212756,0.02589955713117937,-0.00315242619416023
7.86,-0.19786727618695438,-0.09237780311913228,9.846101281872611,0.006611058924644014,-0.02166645711952348,-0.0169096636661131
7.87,0.023908000490751233,-0.10443641132240972,9.30862424733507,0.010191838851755466,-0.022162661935951164,-0.002979347041944247
7.88,0.22556438201023749,0.03289580658545149,9.748149782864814,0.005908078644069069,-0.00044694076506031317,0.014076919104808006
7.89,-0.2781237516480359,-0.07383175722695634,10.05027535347675,-0.0051622029644341665,-0.0012928579132426511,-0.0002468918305136127
7.9,0.33108858502672794,0.1906374517700678,10.266232340750161,0.03328161599309441,-0.008963603647539491,0.01220010798346175
7.91,-0.12949797283736927,-0.33094964738265376,10.05534468357168,0.002054084716680611,-0.024339292770970376,0.012188908846866943
7.92,-0.14537851380412592,-0.17655057637123636,10.17312003039956,0.02214685737892259,0.02121056324697925,0.013793454023134024
7.93,-0.13253805781831368,-0.2616206593615385,9.479639135955138,0.018735939805955688,0.02746721958237893,-0.05294105682495399
7.94,0.08067874988029994,0.30676796996759137,9.86998480357251,0.00987467656293001,-0.014648729505953136,0.008181281791138096
7.95,0.4071303058872583,-0.014771633330935147,10.294142749983068,0.039069297475376616,0.007747311809408211,0.022321524216541398
7.96,-0.3503101685131601,0.21061310665792435,9.81974001689032,0.02009935622227192,0.013323651838381759,0.012506964732651947
7.97,0.2863999824424886,-0.045178827471050204,9.858332760021488,-0.014201692175501726,0.019106289089141387,0.03513909880554275
7.98,0.20595966185645737,-0.1703119878146543,9.827757804586046,-0.008045524213430856,-0.01802505894111926,0.00453823382276142
7.99,0.4182898494802869,-0.19072640444775532,9.818287404619142,0.004575016206591708,-0.015615176081519449,-0.005016284833809511
8.0,0.06062733521431093,0.14875968358779837,9.827859200464184,0.003666910256041193,-0.026581127137506856,0.020307900446457493
8.01,-0.11158971645410888,0.12564878007572067,10.061463856802884,-0.004062258102024732,-0.019407490058298536,-0.0024137097395091098
8.02,0.23655539912941573,-0.08542950322759024,9.8307651103137,-0.00719787043487117,0.01295659674608166,-0.005811618524003502
8.03,-0.028353146822660717,0.004738033331381841,9.888929966093997,-0.023870494037572448,-0.003117803902936226,-0.016660578590861858
8.04,-0.3123709145319937,0.1452217520780842,10.112010929788577,0.0004114756932897282,-0.03504738343163737,-0.0017881902467523146
8.05,-0.012745029275780714,0.016468104706901358,9.637114957810473,0.005948919131802932,-0.01482515021542169,0.012422192030177807
8.06,-0.0734894970920858,-0.26585415270708995,10.253901940821203,0.013035186974226702,-0.005473280957373824,-0.0015542645134169445
8.07,-0.1799089965540632,0.12465351616073979,9.99627554930809,-0.002841903203599722,-0.005617626567057631,-0.00026011691819678235
8.08,0.18285768550578782,-0.012620040281329941,9.848165901255003,-0.01325205853476194,-0.02032968375634522,-0.018927129934096742
8.09,-0.18451365111296564,0.20160870430227298,9.876193077826454,0.040375731034893975,0.00236947782050409,-0.015282817055178175
8.1,-0.029139755205244065,-0.16755561988010928,10.109337599918977,-0.03328205295948312,0.020008630137285315,-0.014380463718120627
8.11,-0.22368679319853368,-0.13015353004081992,9.624377324366415,0.004536099812107533,-0.01694124280081087,0.02870621506562073
8.12,0.11900150893195013,0.5214114100291143,9.710626875341307,0.014158187088584712,0.005409983595737399,-0.013052486504695322
8.13,-0.23075920402644132,0.18302892618415842,10.11761752949421,0.0013427238860826897,-0.03531491855571113,0.0022944806690126853
8.14,0.06489903986072144,-0.031599720116488574,9.831869880940129,0.021062599682901008,0.020042276494382155,-0.022926992593633004
8.15,-0.1787812760985813,0.07013918488501256,10.182282000905607,-0.020213068612299066,-0.006119965233118745,0.024268808533745165
8.16,0.21172383736682457,0.19803884393795235,9.8985816935915,-0.024705360449226915,0.0009695184888571329,0.025262118188733175
8.17,-0.12304169365147757,0.028768798794878397,10.131643951522056,-0.019002869763657053,-0.0005344690242767185,0.00010373030676272629
8.18,-0.16510749402829974,-0.14207447596239361,10.096023151861962,0.0071625911379135125,0.01970995524313979,0.014794220363929628
8.19,0.19883683331009275,-0.19113793529149425,9.83213171403666,0.04581827742607262,-0.000514025589387619,-0.02408018448390895
8.2,0.023713026630101695,-0.17313008841109495,9.50424692281893,-0.01642376483404786,-0.04577678956294327,0.03909555176325967
8.21,0.03580051537334874,0.05377942893137907,9.608915011346095,-0.031422906733989404,0.02445581796466909,0.007705523147257662
8.22,-0.1348778203217284,-0.27383437299454494,9.482286461043225,0.0021092838233426696,0.009609107202676171,-0.018995753003445345
8.23,0.07586525365081596,-0.04552699511396221,10.024803708735464,0.044412486510641294,-0.021481369173905758,-0.0035529960467522476
8.24,-0.12150391064691063,0.011580823257532501,9.497552991309355,-0.01978924617077136,0.0222315879728559,0.008182950481712963
8.25,-0.21725075055396714,0.047280180979686774,9.74954375817576,0.037265857276299746,-0.018575265860431046,-0.011454519518268962
8.26,-0.047818703513213386,0.036626480406925344,9.846169274777845,0.01920020818724028,-0.012070312421400959,0.002336202077208213
8.27,-0.20623934611515948,-0.007085325551109546,9.423711734314432,0.007712396385379242,-0.009427500968831945,-0.0018575499669536769
8.28,-0.021168847685210376,0.025710242634624927,9.951456423780106,-0.025611141414180902,0.008074054003586592,0.030762523736095948
8.29,0.35363297393207016,0.026634404857920718,9.897399595945716,-0.012662726910761443,0.04654470423960414,0.039009571896866574
8.3,-0.17905992186080066,0.025408579794402104,9.799915113883989,-0.00843244314442367,0.018426160588039905,-0.012801554817152103
8.31,-0.45765617430156064,-0.16404683152834493,9.818373613057167,-0.021313745670636815,-0.028684350273622695,-0.008608338143948947
8.32,-0.14084227472108363,0.15985862086691793,10.304033098828336,-0.0014109282364212583,0.0029238025812469586,0.00634589496048566
8.33,-0.1695980263537864,0.11343397481994862,9.37302476030636,-0.03522530461726924,-0.015048889437080278,0.026288050564306248
8.34,0.15553226310849785,-0.06619942289211643,9.608003714194899,-0.002209583197430053,0.0014994126492267129,0.0007679320930985154
8.35,0.20780102913983617,0.038350930693475574,10.120823054970232,-0.010436601460862643,-0.029548680151489086,0.009244105986366052
8.36,0.20653511227424148,-0.3060668361366725,9.82215005246174,-0.02836143026860894,0.009028224663844293,-0.030992104076173973
8.37,-0.09851954413181904,0.10179745220331672,9.915112681777922,0.009180908381697559,-0.01199686388084983,-0.014554728179195089
8.38,-0.4209611068144237,-0.0368961671646053,9.710927919066986,-0.008758343783925995,0.004307508514220686,0.006587676758591546
8.39,0.02737507256129052,0.13627423732690597,10.035935673396095,0.029626797131565488,-0.02032695784274245,0.003914689687946457
8.4,0.13500369817846428,-0.18740962044138107,9.647543588416903,-0.012234341773485004,0.044606213079197946,0.004655195068742045
8.41,0.16204586688834416,0.06317561146665028,10.155511924531623,0.007570725930103341,0.0044798231090455755,-0.016086365279212797
8.42,0.1250369752536957,0.04096377373872088,10.106864193819776,-0.013060039486367653,0.007825468381659864,0.004743289814751885
8.43,-0.1022396962183823,-0.17744268797873858,10.350577736201977,-0.009062947285794615,-0.032678159042856134,0.014140049851436264
8.44,-0.20351280540909353,0.05564606494550618,9.650713370708457,0.002048470408138633,0.006674796854137179,-0.041090380823836446
8.45,0.1916476129928937,0.039878900428810565,9.648568170774501,0.010127360333226346,0.006436073271176749,-0.025742227908989605
8.46,-0.0754155680681159,-0.15934010403363666,9.478093767540917,0.012133496816225825,0.010068571457430116,-0.005131050036262184
8.47,0.056287267817461975,-0.31399391042268193,9.659853957127385,0.03678080996934579,-0.03203043303930141,0.02950952136898491
8.48,0.07053957437805193,0.14994390831221943,9.961663108268766,0.0171156395021028,-0.019799521579615915,-0.0036041233151460675
8.49,0.37092472756148825,0.3272455310410825,9.876606108404943,-0.01202389216032066,-0.009271412093570035,-0.016317951986209975
8.5,0.04151364657474788,-0.2467943370027273,9.63319581268445,-0.010418767810715292,0.005585936524655781,-0.02190461157235887
8.51,0.12093043632055955,0.15052538813038102,9.892641913684523,0.0390340796888437,-0.0027625530796309737,0.007419020886511723
8.52,-0.06303412320715902,-0.057290182036817065,9.9909655018849,0.0037074666301888655,-0.005777519045024172,0.0036978784481410524
8.53,-0.027855198661115098,-0.10708017769894286,9.956534205060496,0.005789256390329828,0.017261010258814297,0.00122693677859577
8.54,0.19551640427263695,0.04561047946174985,9.578133428696843,-0.02358650241390869,0.00455798285504461,-0.00592925501304733
8.55,-0.19794672260687543,0.31650914016835574,9.294301429353016,-0.030468987723233247,0.030092972175820753,0.006608952988777231
8.56,0.3041594365509783,-0.21244691724440937,9.470452898945988,-0.029395897519409544,0.006042535845568726,0.02243196838192487
8.57,-0.0902214238538667,0.055524960616522824,9.918915714383424,0.005106918103232149,0.0062516661953095146,0.020148533268080943
8.58,-0.26821867513666175,-0.23241281751942036,9.771546502763453,-0.012027928720126625,0.01978597893135253,0.0010597617589934165
8.59,-0.03549649598010107,-0.007580567994491024,9.540098142612587,0.02903234310762532,0.00397544799144363,0.005205752413819043
8.6,-0.09729335874969917,-0.25198950657648495,9.874542389732836,0.016012370607690354,-0.004858828223789143,0.0030508729592206682
8.61,-0.18393918414999552,0.18319544803840407,9.905154447416502,-0.029774927249719002,0.016990585266152793,0.01850947793801054
8.62,0.06848188681540751,-0.01502018794463519,10.120824427722193,0.003003282291498071,-0.037375025469115294,-0.0023588684340302276
8.63,-0.13505964915120738,0.045873876372960976,9.834123618591576,0.006743401144015246,-0.0009691761198999632,-0.013735581152033601
8.64,-0.14101524948338426,0.19320735301381373,9.988375491984293,0.052186101554852746,-0.006315167716591364,0.007283595263717783
8.65,0.11116975301204973,-0.12623788240871195,9.668480345140992,-0.03583340071251717,-0.01231194894471787,-0.03006128646837877
8.66,-0.0019966783278070905,0.16973370456364353,9.73703863026758,0.018945560237618064,0.02431954158152562,0.006962985998807738
8.67,-0.09654612761994678,0.11381904032780459,10.015239015253625,-0.0003761088759863761,0.018122569462556925,0.023162285723917073
8.68,0.49903462223428197,-0.2135759042336538,10.259623529409257,-0.019993596493264258,-0.0039825693596127944,0.014419710484493765
8.69,-0.3259122330029539,-0.3113564052271255,9.952216943576621,0.013138416080691098,-0.007470773764152647,0.015258824677129527
8.7,0.2468474834216326,0.08450006431363197,9.891128663402734,-0.04125971073266533,-0.030780816943190847,-0.045903568848318865
8.71,0.29709429598560405,-0.1717282598063951,9.717801561179805,-0.01791412030049727,-0.028733615311870363,0.0035813835973039845
8.72,0.0718625217163677,0.0937452694996974,9.991469463919652,-0.0006389861241421043,0.03867272191047521,-0.04548027290199223
8.73,-0.02784408374123878,-0.32204056963408056,9.972314969748096,0.002891422846598203,0.01388098055815885,0.03507742911278985
8.74,0.028811618166535883,0.017024215422667938,9.842880636879359,0.0027270678560772465,0.005832563783485692,0.02474229083202673
8.75,0.28073695894454975,0.04083158001876328,9.996323707097151,0.010972390698095923,0.007331462468081412,-0.001686656820716378
8.76,-0.05076003493850446,-0.055719347313749466,10.048202537314056,-0.0061708282045653245,-0.011973406205123481,-0.008258839332081193
8.77,-0.24070108938867113,-0.36392577152967837,9.634022014982193,-0.004072265456386401,0.007794309828463214,-0.013212320269063254
8.78,-0.03631503489032009,0.2410454497065989,9.46703369642436,-0.01841549433592173,0.011310745737289947,0.0030311302031430674
8.79,-0.03244668114196721,0.0149521380807687,9.929124527240722,0.002087053177319167,-0.015132133752719708,-0.011176189404681732
8.8,0.04726684724242825,0.20683820799826133,9.74480607682039,0.014920867489962684,-0.0076852739065759665,-0.026138275511734595
8.81,0.2000873366965418,0.02582585019861339,9.853492030228873,-0.034614406021854706,0.02288764701591565,0.011290830832017595
8.82,0.1703394874719135,0.06725287378901902,9.455759410879308,0.015490294830650725,-0.015263015963565657,0.02864143030535832
8.83,-0.04185398730479951,-0.1207117140766968,9.567398557934858,-0.012748306136807216,-0.019584484565974992,0.006074247042850628
8.84,-0.15879454681437766,0.3862358326795483,9.436534429136584,-0.018401518474743157,-0.01535296918378652,-0.007802962121591243
8.85,0.08860034002407484,-0.0028688659430585175,9.834826088200456,-0.010749776478093108,-0.00021261467130786902,0.0030539246859883134
8.86,0.41437579429404475,-0.16534933445958752,9.459489892454913,0.02140052272772706,0.003124552704466123,0.004442969024987765
8.870000000000001,-0.17276420898669528,-0.19522005031979944,10.062187329268196,0.0006304843860377551,-0.012538227185574149,-0.03483787939682176
8.88,0.09891510730328598,0.14479371339808925,9.374852628735836,0.01607587446660847,0.03531044686081006,0.03158836696460789
8.89,0.14063406184712537,-0.20658831156885848,9.882411226616227,-0.03475768561546624,0.01976134234525253,0.005254067621044071
8.9,-0.051995425885909954,-0.2994566796042184,9.939709747728177,-0.02030955404911942,-0.01763994528979769,-0.021422352739438474
8.91,-0.2758371853567886,0.11638386847064536,10.205758328856874,0.013210472860613793,-0.013321174896968966,0.006020746981207291
8.92,-0.0015204179265541965,-0.11491177775109691,10.220273558892272,-0.005540011079737925,-0.01814755416687314,-0.0023646978744047754
8.93,0.012895825359856226,0.18377505020475376,9.868675588167685,0.006822494564061667,-0.0045008492280033665,0.0030726985332648277
8.94,0.13355798911631417,-0.29686396089187306,9.68386744981053,-0.016077251078522512,0.016375118308872647,0.03273725632295677
8.95,-0.5719181701977947,0.11745922044921182,9.811118218350266,0.03492614042396259,0.025718694495659486,-0.005187833674599717
8.96,0.014843057476438104,-0.09817986307551843,9.637808755182057,-0.0258723450920676,-0.03479910856646156,0.001058030431510744
8.97,0.04053405920454239,-0.07877764142565523,9.384086331163981,-0.009715260838256447,-0.0004696321617132321,-0.01230108924493354
8.98,0.3714509754907779,-0.15925694055175577,9.66373685118028,-0.020110225910611467,-0.025349708044881653,-0.006286095686447717
8.99,-0.16391546618698527,0.20585910685038128,9.614877682262218,0.014231877330658352,-0.001680429368206086,0.010710517759970348
9.0,-0.11459153496045475,-0.34502095524502385,9.96505171002358,-0.034784269751738324,-0.0038527004817675123,-0.028696153538913242
9.01,-0.06139418224079761,-0.19431097929503577,9.375867948842078,-0.02860265952057486,0.03695744421343212,-0.03540429037314628
9.02,-0.1116315907456702,-0.06773572508131004,9.76542200032872,0.030643232605669445,0.04082207110654598,-0.007068842101735642
9.03,0.23101230059712932,-0.04951191433143952,9.593324274618835,0.005164118994528714,0.018222670957116292,0.032507792348261746
9.04,0.38629605938223877,-0.09249292201260337,9.73568964360954,0.027243842635534605,-0.0023194113389847877,-0.01981163035537763
9.05,0.14001980862833663,-0.01872476863297757,9.756771085693128,-0.007810754427060975,0.031024628887116292,-0.00013386603224695083
9.06,0.07387451935422751,-0.12898559255084177,9.859260583026671,-0.006466726518134051,0.01211242796790855,0.01512683700514236
9.07,0.17129340118722938,0.23416271274088613,9.84838515837744,-0.04088217134891349,-0.02624641141341446,0.035805412945178985
9.08,-0.03374956091176773,-0.22642221249049319,9.958107760031483,0.01631896282550696,-0.0062816880400512086,-0.0020502076224728116
9.09,0.07922327568625497,-0.20012149390899864,9.78779519070714,-0.012456314240750867,0.01617461736420151,-0.006317536220289582
9.1,0.21460371649974172,-0.07787048290937014,9.758251096093693,-0.038910466203203216,-0.015212051744323081,-0.02402264693192622
9.11,-0.016101848037123324,0.06310181430159031,10.023193632942183,0.0034996193084714166,-0.01567168936403148,-0.007800791138495772
9.12,-0.014471738635681129,0.09617798125659571,9.723754887844956,0.036283263650947174,0.024023797230583736,0.026592449730190787
9.13,-0.16148186656753935,0.06566026738616067,9.454664840560408,0.0208513887650623,0.025413468398259854,-0.014019320119083353
9.14,-0.26525280361019854,0.006164300339470986,9.664313531806384,0.021568548724446007,0.026436884231370448,0.022001843674667496
9.15,0.03946039658655971,-0.019660925022133426,9.834189863129698,0.017015516734712376,0.0024703591245644144,-0.011539844488672442
9.16,-0.09760720514021147,0.08249841694509139,9.953300891410164,-0.017615035888175815,-0.01078469093418241,-0.012250997889579453
9.17,-0.193257397429844,-0.3665444894465658,9.934056796859176,0.04117657967798873,0.004140488296771448,0.00672400668522817
9.18,0.12095874790197275,-0.12675439797099283,10.086960290543747,0.015375571404059858,0.028877716227768482,-0.024652115988870238
9.19,0.18034436129569778,-0.08179164598943595,9.672579561282474,-0.0007930759252247971,-0.01807816629378582,-0.0045920230322188055
9.2,-0.049555433075989766,-0.02943578969777004,9.426876431032078,0.022373861806954342,0.017223358188350656,0.011961784480093902
9.21,-0.14628003135464485,-0.06666178478933306,9.864275804980153,0.028738964164547316,-0.007262044495649626,0.014383593221434213
9.22,0.24566731617384124,0.3219655258860094,9.855324652207017,0.03400039788727966,-0.01620429680838359,-0.008434566580030953
9.23,0.10915194501675421,0.0019743891475132547,9.86157016389361,0.002653650848810862,-0.011271937581452613,0.008037739295645524
9.24,0.29523783461360226,-0.13510337430367192,9.96228023165222,-0.011546412519640479,-0.009968818768563228,-0.03128434268916174
9.25,-0.07214808094914427,-0.038274317958403865,9.572153137338182,-0.007418246142246586,0.0014461466466153224,-0.012462550300287614
9.26,-0.08236950258503166,-0.049859886253425745,9.59846682979441,-0.029778280481149506,-0.008047052251347534,0.009211958408553947
9.27,0.33150213425009617,-0.09355084936888475,9.795684357368382,0.010990483938027654,0.013121380946265417,0.014576993822538329
9.28,-0.017242875304753876,-0.24318024235413033,9.868032789261598,0.01568261843381427,-0.003646534270525606,-0.024828393330750254
9.29,0.012271215322912104,-0.19612749902068718,9.250593911703538,0.0005192458010849202,0.025793405110498505,-0.0035207508290129525
9.3,-0.11832304180810842,0.11692609874892033,9.436838926967665,0.003531787802209027,0.02472929515429776,-0.013421203367182376
9.31,0.07878758998138223,0.1408179391401597,10.233272991122563,0.015426043516827172,0.010575778343136426,0.003541677066620863
9.32,-0.44769566848051273,-0.20908367784783852,9.800219840048767,-0.02288610579362703,0.0010558976392392749,0.02840549896951286
9.33,-0.14677241696915766,-0.0775028506293435,9.770143671120891,-0.01173364117703225,0.008397580142136946,-0.019031382016157967
9.34,0.09562985348617642,0.3558497136935619,9.929079873463492,-0.012821828233557117,-0.03598600832441219,-0.026239244162173735
9.35,-0.1598682673546297,-0.00560269322678985,10.015089290282456,-0.025516024771102958,-0.00040313470709861954,-0.0032016144890368876
9.36,0.20848824325680013,-0.3041428906998021,10.02343880545756,0.0013821971759915386,0.005020625834968776,-0.01817122371359166
9.37,0.09463709113260739,0.2473683371507339,9.631994165292994,0.027566193477643157,-0.010207278646367175,0.004898404748945854
9.38,0.2006616046756047,0.31957294197253244,9.842433635726687,0.020834279820339186,-0.0113714119420292,-0.028237784284961272
9.39,0.283172574749187,-0.24692059312277564,9.992170334604118,-0.009744500646603118,-0.01710555639252714,-0.0027897041966641967
9.4,-0.0984051204234103,0.15077968746370266,9.969086670338525,-0.06140050224519342,0.04704032951317041,0.04152788328415926
9.41,-0.03399314117026297,-0.04621711187617784,9.384695113368803,0.02158505961390963,-0.02528693331417196,0.020948762986262
9.42,-0.1136633168069196,-0.0372149377521554,9.61431696707576,0.010914899584439202,0.01126318401771943,0.02705018935329581
9.43,-0.09375031248184981,0.057677938170606007,9.975088845486102,-0.041355942832247534,-0.016996691122161747,-0.005814569299270306
9.44,0.1043982586889564,-0.22027355015419392,9.658834220629437,-0.035945281477457625,-0.012717946512247717,0.023893607843253627
9.45,0.06431484862025513,-0.10087857084302032,9.861123661249627,-0.020143887405718732,0.03061804041647246,0.013454973394170323
9.46,0.12947149220383958,-0.14139719426546576,9.859277830865828,-0.022163701986219926,-0.02046858500254132,0.027055146783683842
9.47,0.1349774842046161,0.15193946873476966,9.49113634981296,0.002092902379838005,-0.017965510475343855,-0.0163813293604151
9.48,-0.0003884385110855653,0.084315835476053,9.77189632359074,-0.007119903016387381,-0.004426632818536323,0.011643592166789916
9.49,-0.21730153266151067,-0.25445197541526704,9.339911525781313,-0.022202307288545827,-0.0324080409347609,-0.014164221522303
9.5,0.07855156082031563,2.56808234847355e-06,10.320843906901482,-0.0036278967525644203,0.017779174772678017,0.021992998850311873
9.51,0.16253431021848394,0.2544360841806877,10.227947772880396,6.0830713769574335e-05,0.03515573023930695,-0.01893312646278738
9.52,0.23074388512187594,0.0073067855339564525,10.121013478555923,-0.03127620595990673,-0.0334484203067993,0.003996309251898383
9.53,0.1071784939850875,-0.0076215039252666514,9.371127314425511,-0.004510910645475283,0.0185892439084755,0.007866291420668711
9.54,0.07372505008739084,0.15710531411856227,9.602998858562442,0.028740661032039087,0.01701071090197097,0.05095621940221536
9.55,-0.07322469956597263,0.1696985302730956,9.585288933625751,-0.012171368252712074,0.0038527167123037064,0.01119348590566573
9.56,0.20090063308900719,0.054055187547167635,9.897912093171222,0.03055182267432359,-0.000856804135190555,0.00843862784029045
9.57,-0.08053807707549496,0.08552409271926668,9.887620693414863,-0.02861369402650797,-0.0029610195139196443,0.0037234526146967704
9.58,-0.24854036075399752,0.232671554011411,9.606416329777428,0.011383734693805611,-0.01730615194699441,-0.023202691134199392
9.59,0.07550816853241246,-0.17777571945749052,10.010743177103947,-0.004420277253274428,0.008802799035604186,0.01475367327152239
9.6,-0.028165991291919056,0.07216880835484323,9.854270438560011,-0.003990429900228883,-0.016177920578643073,0.006786164918812823
9.61,0.07820015202050588,-0.1153973316057758,9.948233965244341,0.0026427591947501155,-0.022199847204949844,0.021192565897480656
9.62,0.25297809981881286,0.358596600855835,10.067228965985375,0.007439335151759161,0.021703892029484532,-0.032924472631800906
9.63,0.34506331898692777,0.46654673254063667,9.86003071629059,0.019136354777563386,0.03405810119478958,-0.015538908776012248
9.64,0.3528311589709249,0.04879745590958793,9.929954155334197,0.02506400590662216,-0.02914733529087884,-0.0189082221346922
9.65,-0.10117181986902463,0.4069019046834293,10.036578159373558,0.015546083149561074,0.009533749288055896,0.00731871324089756
9.66,0.023432403057931726,-0.04077638976141881,9.610484756867484,-0.0027096853077514206,0.029804647284037446,-0.009592121232794803
9.67,0.10513187478871465,0.229781474117589,10.01506814332239,-0.01464005747625346,-0.015242804419723088,0.01782767874780152
9.68,0.11499500047594996,0.2649152348691123,9.633612682603227,-0.007523860874049464,-0.006813245249074578,0.007395599013823593
9.69,-0.008192163003150791,-0.22752964443846901,9.289579310506594,0.016501295908600572,0.016267011476090224,-0.01292673195665308
9.7,-0.0758005642852167,-0.11447891378440575,9.689047855063125,0.030964574834399832,-0.005573217097560691,-0.030036854566431043
9.71,-0.27912542196052975,-0.21397413235377855,9.619353730364205,-0.02743267098737135,0.02066197420902668,0.01411586700433972
9.72,-0.006500525198729453,-0.30414940205387947,9.520671577908574,-0.00398047159235095,-0.006806386557555315,0.01800154312350711
9.73,0.04550707515098522,0.20439855349103545,9.676997518500063,0.010760589724541941,-0.005681072159515364,0.004412795979494117
9.74,-0.20673849341660297,-0.003027863725862312,9.883583036800578,0.0017306891323440566,0.003914721322428261,-0.01750047774108198
9.75,0.1116777627004776,-0.08929277512565283,9.30630917509612,-0.011564690058367083,0.014805060619696761,0.014336857128760726
9.76,-0.03129391658296436,-0.0008323741676929904,9.428143668747035,0.02001872246858308,0.03341044734871902,-0.045735464464923735
9.77,0.05554456886445999,0.03152803635942585,9.941527874861443,-0.0014351801013397073,0.01305981480191716,-0.011123600770002481
9.78,0.08604522282457597,0.3501259487761413,9.865195296606121,0.034757232985744464,-0.004654617690972285,-0.0005193901780391116
9.79,-0.30786925702991363,-0.218189386831418,9.517349522686628,-0.011109509771132108,0.01846075178890611,-0.012333114171963075
9.8,0.21782508496442834,0.27098352922586405,9.90993446948232,0.005288773534845336,0.013625997573898931,-0.005587100419841478
9.81,-0.1156024494542114,-0.06789970822171063,9.82772946491347,-0.020573102486736716,-0.004141636228784691,-0.050806527500888515
9.82,0.2605077121579473,0.11756199113118052,9.992333555666326,0.019120411403721504,0.01920636437369446,0.01081060323309753
9.83,0.05932083890496058,-0.22304157332094762,9.900341953505631,0.017463932825713555,0.001899049628594209,0.006043044325118181
9.84,-0.019697081634636314,-0.04288947727434869,9.570036642409132,-0.019082301249966144,0.0005804072169893498,-0.0026063725065125793
9.85,0.0757773109990006,0.35617995163884536,10.087901222506666,-0.03499872829761492,0.0084768940483946,0.021203118890322458
9.86,0.24177679317682993,0.16037106220585423,9.62543934512093,-0.026290153463367286,0.010598278925396668,0.006289257785720899
9.870000000000001,0.08472946459469022,-0.1706118872375245,9.797117484618644,0.017366770223007158,-0.016411181903198138,0.031404628827166006
9.88,0.19416753625900401,-0.18987721945771363,9.675113856632995,0.0176695699217082,0.0002827468221755021,0.006668930358231475
9.89,0.13870539066506146,0.09712524639998613,9.571956015641065,-0.0015047525011321666,0.033199988578476704,0.031508284540870214
9.9,0.1653392021729227,0.051423492970325245,9.768251598829542,0.00320956769733388,-0.017831929425097606,0.008851293282034827
9.91,-0.1718750059352036,-0.07972517717316127,10.228486306453753,-0.0019454409001946717,-0.04057335907451533,0.01588620029811651
9.92,0.1312408901610394,0.0856870539559258,9.643714783336481,-0.010253048102464262,-0.0158796165997145,0.01790950853173068
9.93,0.08706480060907996,0.00386617150661135,9.193455913583367,-0.0018751657522708433,-0.03129859945485579,0.011129955348972901
9.94,-0.20584623684977166,0.27279352973842386,9.95272891668185,0.019109224040482906,-0.03359707511673794,0.020281800485015093
9.95,-0.279192063131458,-0.1168426973413077,9.679179972389491,0.020719350201104436,0.00654219173551977,0.012383027079909134
9.96,0.09122813986230566,0.3582690105961206,9.645871406777776,-0.039396158434397255,0.0019501462387993892,-0.023926458157775672
9.97,-0.3345469440768839,0.27588860986960023,9.805999537706018,0.009370827362748926,-0.0032691738725176885,-0.02346043329198082
9.98,-0.0632140321621094,-0.06451423915255083,10.123664884795701,0.02165995141661382,-0.008853066795195591,0.021113693427879512
9.99,-0.07597449753477654,-0.24030504530118452,9.508399979353984,0.006581707332086765,0.051085182452716336,0.006067048187370281
10.0,0.1405016341589924,0.027555275347733173,9.707844098473572,0.03818727575434359,0.006321197773656452,0.010615640417859618
10.01,-0.16383889080172,0.09207968337910034,9.94316782421808,0.023598147771943592,0.02884573620189348,0.026812714396598648
10.02,-0.034040606517162765,-0.05576014283113397,9.763736602395895,0.015325591874531547,-0.030741598024936482,0.007257645740922291
10.03,0.1932755826447363,-0.17532264122260136,10.00085140119476,-0.01217487520507821,0.024615667474425798,-0.029256932283029533
10.04,0.1940511411469651,0.21741644734978466,9.867613959933406,-0.008310579558795857,-0.03557277520672011,0.005070645592896957
10.05,-0.2550184651639394,-0.039441428489577164,9.693810180076953,-0.0026578440222042956,-0.00885323439048187,-0.0251911707794901
10.06,-0.30272985934489877,-0.17672317747258406,9.584101836984992,-0.02878232083493661,0.020664366341023015,-0.004519398199951059
10.07,0.11720151391018517,0.02376521630234941,9.871960942631237,-0.003992714027640439,0.032474862418154435,0.004348783568401507
10.08,-0.21740172211503728,0.18939056767626383,9.939679739677588,-0.0013258484623068034,-0.01045232720700705,-0.0002893622070484079
10.09,0.13257491556407885,0.33797195299951155,9.562832239305566,0.030081924299377075,-0.0016343478601932465,-0.021547934684598716
10.1,-0.1691203016776038,0.22951228986466182,9.576205219803345,-0.005673539003038923,0.018783212146316532,-0.010339422035953517
10.11,-0.07597632059260509,0.11941771115562677,9.739860417881989,0.03245402470948939,-0.009166801577508621,0.03774018861800354
10.12,0.29928027700026266,0.35905891502063014,9.928698508533277,-0.007866491258378976,-0.03145420584246339,-0.025776535833303166
10.13,-0.02055788773585787,0.1931948050315597,9.96359073452079,0.0008648295962772381,0.0021698397705671568,0.048914938960653846
10.14,-0.294421342903118,0.14663589440173236,10.33509056565046,0.0007603508128479813,0.04400307076009508,-0.01257300522601262
10.15,-0.16528247486063583,0.2693784779622168,9.775250670393746,0.004096105692716212,-0.025786546287118486,-0.006639384450295518
10.16,0.1177073466148257,-0.20689325579862106,10.167596114015947,-0.008405093364508115,-0.0059055104593269195,0.02462452526212983
10.17,0.001492865943538374,-0.26571045459035614,9.812072143514069,0.02300931748525506,-0.0035477309652825737,0.012946209797866405
10.18,-0.4150867250104262,-0.04364753753943153,9.779525760959181,0.00952727257140742,0.020078577184034645,-0.004836184043370627
10.19,0.2893958793267454,-0.017927953280315392,10.06845810207659,-0.022285838720946076,-0.027971148470285173,-0.017610720923432084
10.2,-0.00733337626761598,0.28565791071053515,9.862096694368704,0.01141177053920159,0.004169917741130952,0.013105254355272686
10.21,-0.13336202447058984,0.39472080013124716,9.864590703277031,-0.0026842309516714714,0.009401527536084617,0.0018475005323509723
10.22,-0.13597104002422786,-0.0675372541563036,9.889022279166957,-0.02112264921218651,-0.02972783259203292,-0.03640898330211198
10.23,-0.005881106733884544,-0.32819719328564473,10.08679128757991,-5.884873929830031e-05,-0.015314206361286595,0.002397258088162324
10.24,-0.0328883084498992,-0.06230632771035674,9.748425623509705,-0.017340495421466727,-0.01214266268283154,0.02822459096001726
10.25,-0.21324672301734607,-0.08907827881911505,10.104323315191532,-0.033785620077702555,-0.021990802131130853,0.010286788250631665
10.26,0.09504210799066302,-0.19385483235296064,9.78651144941992,0.004946949735844453,-0.005201934478038924,-0.028649544562820737
10.27,0.004528286444316729,-0.2049148619768255,9.93577149822834,-0.021509140480310544,-0.025027174859205664,-0.03538881295535504
10.28,-0.088930864041037,0.07885681043124405,9.908342597567698,-0.025882403339386264,0.024230301223964787,-0.02222852243447179
10.29,-0.05907432530602499,-0.35141159636115693,9.422315776882902,0.03950083665083301,-0.011006654728578195,0.01598780008068114
10.3,-0.1854353557938622,-0.025631584951496134,9.745285384617208,-0.0062087965711408654,-0.010209464132802106,0.005524993053638151
10.31,-0.3472427885597712,-0.07340328664519548,9.559379499954195,0.038162057432693616,-0.021201085912222528,-0.012386932027713805
10.32,0.05940815129731312,0.1140307241761924,9.610459059802961,0.016329133124495614,0.00453750443795823,-0.009904326332734529
10.33,0.010184278006980005,-0.10665201393297927,9.832828545903256,0.01020486261283536,-0.008578603672633082,-0.005463280316575504
10.34,0.16573906575598268,-0.04422553826774468,9.159443115090669,0.045059023310535004,-0.00971367747867868,-0.0008319914056473528
10.35,-0.49612749399815886,0.06779674056612085,9.580317404297858,-0.006742776701611474,0.011983874318400718,0.0021385380340492905
10.36,0.054175615088969654,0.010998711662462593,9.988884920269635,-0.010972185105395237,0.010806808390466235,-0.009911002328200389
10.37,0.2931424350203149,-0.12295496368385253,9.446782445549392,0.03434782497380754,-0.0004032510421145465,-0.030388508268330016
10.38,0.02980469886342321,0.14831642815762205,9.58313748771411,0.009914245561166211,0.01721128316681538,0.007429407241928636
10.39,-0.2675280802038595,-0.03804501867191453,9.831320775728022,0.008580433975414593,0.05089572183215523,-0.0038377380412859164
10.4,0.0894623511304537,-0.06464860798368834,10.003535895657402,0.009253116733934636,-0.025996407954799537,-0.04327869215519448
10.41,-0.0573838920005592,-0.2144271118361405,9.79732904605141,-0.0007702365967632868,-0.005781850698783093,0.019996708362490023
10.42,0.09703312189733258,0.18098815633722914,10.071987792930603,0.01512112183085926,-0.02253257551108686,-0.006938680942010291
10.43,-0.11270719816588592,0.02705909995958964,9.58618016607165,-0.00333704932745311,0.018086823109965493,0.009084611073913049
10.44,-0.39661443310841443,0.08289156998355378,9.90677737738026,0.00786399445324687,-0.017510863609043564,0.008662737909871935
10.45,0.23403940849471053,-0.3507288047837103,9.708263309414692,0.0010673454664414713,-0.014776655680545515,-0.009586000141464553
10.46,0.053778176230127255,-0.10979623497878127,9.907408396804525,-0.007754166018335934,0.02673974259872147,0.009811543888852884
10.47,0.35925071513118617,0.3708161346146492,9.376875179871782,0.029726949790575878,-0.005005402226041328,-0.026244410264717438
10.48,0.19482314041974952,-0.07144203564410082,9.588858821325312,0.0035955619619665916,-0.0034151287555711845,0.034428588635135725
10.49,-0.12640830305728723,0.05643314009054517,10.00008844536723,-0.0029138193669889963,0.04415526810001282,-0.012283044255342702
10.5,0.04433622488023261,-0.11696382952271961,9.542601221083768,0.025719314915115074,-0.010302095693280463,0.009053885376153844
10.51,0.06739260176518734,-0.19978694477543954,10.138226566207985,0.0036993153603880513,-0.014616952487921185,0.022645171762529486
10.52,0.3136074821352644,0.03202538023716045,10.016815690436047,0.012019315978892272,0.003413175594954998,0.008770788011942992
10.53,-0.018048302754668236,-0.38071645519020714,10.164115716130764,-0.011632160522329894,0.029853190416273934,0.005960920951343748
10.54,-0.1009134608144462,0.15744303260284348,10.100582908830887,-0.014313913820861767,0.022686266171365533,0.02181233547372984
10.55,-0.1328564152721932,-0.06698076231343762,9.749268508404281,0.025084481213834952,0.005692514613825211,-0.03296067466526462
10.56,0.05617733949970849,0.001141519321413624,9.996824327887197,0.014490479823750287,0.008480679677867,-0.030557552988347007
10.57,-0.1950647398838283,0.10644731953426188,9.328362282683997,0.0026154640435262504,0.005772046286342796,-0.002413364209363612
10.58,0.24854556778271553,-0.1283180897856429,9.672930884575619,-0.03218894636090155,0.02338496062301011,-0.033523328582496695
10.59,0.2064244997183357,-0.18358278227967492,10.173720241007837,0.023970610486960694,-0.010007040203930919,-0.02419635380193404
10.6,-0.02952772422856242,0.03102476085748199,9.87192396146569,0.05407717131174196,0.019655204671501513,-0.005724039647259785
10.61,0.14836257210221881,-0.08485007863094007,10.100974947358296,0.013128723650862612,-0.04380529672818281,0.012055182613342694
10.62,-0.06830237309114905,0.07662615785975657,10.056441989927638,-0.006642242434369612,-0.012082748244936242,0.022768912854500417
10.63,-0.027279605671294248,0.16894142332885198,9.982805008847585,0.00587940737038634,-0.017917968176254365,-0.02030248863575545
10.64,0.1367236391160705,0.02064507513692121,10.094313918182097,0.021766479296133866,0.006880727222799265,-0.03426710990537646
10.65,-0.23699220520383615,-0.12084552668225168,9.506919814932438,0.0006390015611186023,0.003652189350258135,-0.005168151902979954
10.66,0.08451232975872659,0.015203369975182814,9.857189204199097,0.03160657301374314,0.018586467098786516,0.007879245951968459
10.67,0.18345968681240574,-0.046177662757580354,9.645052137703113,-0.00026656714190074945,0.0168034014804993,0.02026042383417871
10.68,0.04291918232339545,0.09905527813333409,9.750665742365815,0.03350394237306496,-0.02609933427193726,-0.024403794677512868
10.69,0.18000410288595156,0.10858609289178872,9.395224579054007,-0.024928474577701417,-0.006939905122727053,0.030322527955668255
10.7,-0.057547981096041215,-0.05722450003577571,9.192337127708914,0.005347088143718557,0.0166660341904868,0.012422809642064863
10.71,-0.026271319390006143,0.0634444744755645,9.725724928876001,0.026301034111834945,-0.017980476438254827,-0.00920113451539021
10.72,0.12168575270137619,-0.2946047020808633,9.610158270612084,-0.0296542325017999,0.03397804711694254,-0.008545136665084645
10.73,0.08288145627275767,-0.06390770205268931,9.849757704735941,0.00397186629032659,-0.010818122514915363,-0.001820802295964797
10.74,0.06089619337849134,0.28184579190931275,9.878003277398559,-0.016773539769454716,0.007212237881526314,-0.01686782069422274
10.75,0.055849378676490674,0.24265631649025923,10.089446514590252,-0.006226021824677538,0.01285818560798939,-0.031090807577947237
10.76,0.010969196355861298,-0.036501676571706346,10.041567015411658,-0.0022464861980796783,0.038473925293128194,0.021563255995301973
10.77,0.21636717262850827,-0.05677436564289096,9.632219910625631,0.002586288509445822,0.025815194847534768,-0.0161885675917191
10.78,0.3079963006715177,0.06868118255570482,9.886325084982927,-4.203042413906245e-05,-0.01724683555155878,-0.005485632767137175
10.79,0.2074556804836604,0.12509716454052067,9.959144641157234,0.022229135874315426,0.010260975991310484,-0.023187482955946366
10.8,0.10620961406707528,-0.07158105516557126,9.859871810919248,-0.008708705606447077,-0.010488183796721796,-0.005052577483000581
10.81,-0.15597054096090227,0.002144431593731947,10.2388661918638,-0.023992460096915833,0.002169019009697164,0.000315584428330817
10.82,0.1520838164613558,0.20044377159747548,10.029379861918107,-0.02767278204778793,0.0057391515145993445,0.013416129948396261
10.83,-0.30754022838198736,-0.4036858847919321,10.00029360171908,0.019433341848296183,-0.0048194557609771115,-0.014684322890163153
10.84,0.05376888400296879,-0.12662298154058546,9.804188021738558,-0.0014565823522674182,-0.03264068255818965,0.020278023055175606
10.85,-0.009192361265650689,0.012731094583119044,10.012901908408963,0.015846912781215763,-0.011454947391142355,0.00026720460953148984
10.86,0.1254094301772697,0.22678602396851222,9.856741165262573,-0.013221089159089091,0.00834896032747479,-0.01427141412691192
10.870000000000001,-0.01635901029557962,0.06934165529153032,9.853587310289596,0.012649327107775093,-0.012339315597804682,-0.011980711719551009
10.88,0.03354903955369394,-0.07392028945632717,9.980644608626957,-0.020069379877487584,0.015302588066208406,-0.0034399618210482637
10.89,0.060561297896153596,0.12863069302164995,10.064619405064892,-0.01539421813319225,0.0030699098350988234,-0.007707652428808709
10.9,0.19883115136755555,-0.3171968944509795,9.768907305597514,-0.012460704602375193,-0.012241406475505945,0.05067237050195099
10.91,0.16332565781553962,0.0893620175561817,9.665613130947255,0.006636358722084156,-0.003964163463519346,0.03691728477398038
10.92,-0.09614083494956174,0.20704914365189475,10.146870147183384,-0.029562431586696716,-0.006103459282498213,-0.010151341278758315
10.93,0.17094362761645973,0.04738385053969008,9.714772427916017,0.002620960007426657,0.014652773410338289,-0.00964035391456774
10.94,-0.18426464273038135,0.07133341019752899,9.641223199863473,0.025060624971332462,0.0035424923594159744,-0.006777339288507869
10.95,0.3850544558511583,-0.18508543203901429,9.896066692102588,0.010233794965406823,0.028127795832084617,0.007585468641007972
10.96,-0.025022546891360836,-0.1972119664845718,9.524603407389854,0.002581920770994932,0.015399979940031392,0.02448668756512337
10.97,-0.044235379042959114,0.37912552438863806,9.928469533968984,-0.058247833877869026,-0.052139652530673646,0.0005383140743670877
10.98,0.10440041048630122,-0.005123383745785332,9.45268520257,-0.008876089386001753,-0.009039968872229935,-0.0457958702738336
10.99,-0.09993735145721541,-0.14431841090884068,9.924282060852198,-0.022157951031763212,0.008621542143393692,0.007094861112298141
11.0,-0.2942492948244735,-0.10263680830049043,9.689192462202826,0.003227151314145159,-0.0005585594814889012,-0.02168122895541436
11.01,0.10054671422109461,-0.19417004085956327,9.694780667240968,-0.026088496344301066,0.0031208262272175613,-0.019869930347716676
11.02,-0.07612017522025909,0.10021092495021049,9.712860477112658,-0.001802045064234026,0.016450109584648924,0.006949614647246032
11.03,0.0033421645782997734,0.22790144697322445,9.913808759792223,-0.006115335853820529,-0.01929022334597743,-0.036732643740575006
11.04,0.42685248435541595,0.1404465491595836,9.841947515629489,-0.0005796880014734791,-0.0420825335102675,-0.007570565953588839
11.05,-0.08811911966845062,-0.153127115518416,9.47651670044287,-0.030284982790916747,-0.025201749358262155,-0.0019513282858673214
11.06,0.14033830175332357,0.09582306085921036,9.740656773174274,-0.007903003450418876,-0.0006737032316659805,0.02428956350556415
11.07,0.10864347753228883,0.1444566703266479,9.682712076098746,0.04057440771336769,0.00724429497628014,-0.04516259326977929
11.08,0.2693271757150004,0.1551103839765081,9.807036138253116,0.0011404694881156953,0.03627972622392444,0.03143115598130084
11.09,0.1995406940993498,-0.30517843425278257,9.76725201473452,-0.017303948599471628,0.022183064355604874,-0.00044361636662164816
11.1,0.1854459557036739,0.21039582221349193,9.621751001565487,0.007321573068801038,0.01684274523217347,-0.01053485835500906
11.11,-0.06616103689602923,-0.0284751885117778,9.737927924212817,-0.002202875686330751,-0.008919137120835688,-0.010165348344235315
11.12,-0.14346074386419913,-0.11109089797048506,9.781356819370842,-0.0012652138641463804,-0.035574584635370776,-0.02798947332740212
11.13,0.001000784884330936,-0.03578290049183544,9.811885779069836,-0.027357258977606814,0.02239096170424813,-0.01579261084128368
11.14,0.3031395945655678,-0.4428117709836093,9.997801500226029,0.038397628451073404,0.020639690402907203,0.009355120382458495
11.15,0.25844073194610195,0.28170719920812193,9.412250082660918,-0.011080074957166845,-0.011752786177869625,0.024029043899718144
11.16,0.04034725990294367,0.27304057407060695,9.214994608380696,-0.010894740637844316,0.004854270506570398,0.02686256523714487
11.17,0.2920861576044642,0.3029786514522317,9.654414427748454,-0.0013482777918136367,0.0011483312524431866,0.005247083697408128
11.18,0.3418563876559601,0.06608103189372082,9.77369907347487,-0.0029565754769537754,-0.01957931261384265,0.03211239243352707
11.19,-0.1452584782176433,0.12711977857975706,9.519180810769223,0.029605235170872813,-0.005466362493072557,-0.022836916696977797
11.2,-0.019321574827522083,0.08755225309046699,9.389494191478372,0.012900376015770243,-0.014667172123409827,0.012493954567719104
11.21,-0.03960924514635047,-0.0818681863436358,10.062091581372623,0.016281598857029504,0.014662621523562736,0.03487489681825453
11.22,0.36422844276835903,-0.31590302678718984,9.989995447390722,-0.00035073400646487,-0.0006540515963732215,0.02388028313529712
11.23,0.23572356015643517,0.1431080109942058,10.23338077015877,0.002600394752811222,-0.026242863159627167,0.027210114916231046
11.24,0.23048628421928302,-0.414349430983111,9.898747295940218,0.02388340146830765,-0.007610116767457394,0.006650902083512218
11.25,-0.2531451111902213,0.21548206666474304,9.481460997389863,0.015267395531503847,0.0025640942826308305,-0.01914226620881507
11.26,-0.020695413236352673,-0.21535336196721444,9.921517158745198,-0.002574602009249039,-0.012214904748583064,-0.010125181752041967
11.27,-0.12035605559409615,0.04217855637221374,9.759501704458945,-0.014560004259337157,0.014134824721058602,0.031970526876718135
11.28,0.032094483984741476,-0.11667401296096916,9.87757316442139,0.022066315459828387,-0.05415316048007337,-0.014774713968581439
11.29,0.1861888284466869,0.12910102603553908,10.00724814675838,-0.02487837110783592,0.011345924974244248,-0.010668418761616942
11.3,0.012581851466347825,0.005322682359442283,9.880637206586018,0.007502015867207266,0.016115215774480766,0.014100972184891035
11.31,0.009508375872005101,-0.014796011268127882,9.849220253011113,0.024542784217344647,0.030146491510995483,0.062126798004778966
11.32,-0.11464827576010268,0.18854757169025876,10.051834861282275,0.004814096019076336,0.005717771414254629,0.004057764956577932
11.33,-0.5176980429778695,-0.32429611734232927,9.99771842476384,-0.017497279380231146,0.02070770560732434,-0.045095618917131174
11.34,-0.12761199226325262,0.05069133136807381,9.622484240355096,0.020068362992109682,0.0070537290498359035,0.004773196812567858
11.35,0.1765275334667349,0.06884971036947272,9.71693273776761,0.007975266305798003,0.006036224868001122,0.015464957359562074
11.36,0.02489752177843666,0.317305455055217,9.537883099132294,-0.008307709976399232,0.027942473117070033,-0.0058102793658346315
11.37,0.08770171853294167,0.12215261665884092,9.87040458391739,0.015556207766526964,-0.03534448269370413,-0.013947600083233157
11.38,0.21117493884478802,0.02219098823110926,9.620868331432096,-0.025777858596062752,-0.013388962341447362,0.04845051617357505
11.39,0.13797847029040794,-0.23119296482135598,9.821161355098159,0.013275710369537582,-0.009302181095246392,0.008809762899442432
11.4,-0.2145117787081717,-0.03809569767024303,9.89009266035972,-0.025381760369608708,-0.0298140377983461,-0.009051488806417679
11.41,0.12626066955985515,0.07956700393609609,9.496271070080892,0.005097452424233549,0.00466038967371623,-0.005713202193565195
11.42,0.013611416700256439,0.10948692789956907,9.425786888010943,-0.004713297242797144,0.009677497736281042,-0.03281981372182099
11.43,0.10290205617435576,0.048050235729250955,9.626503534336683,-0.013373529548208229,-0.03859734682867223,-0.02903348877426241
11.44,0.2612906476754024,0.014458712637019538,9.438163943710371,-0.013960987064146746,-0.022700024480436794,0.024619354285630616
11.45,0.023894865372907602,0.12749522676399058,9.800152489876318,-0.0027654445246104997,0.017482668740438186,0.005201346029332178
11.46,-0.19859578779592946,0.1923457339945803,9.768255625089715,0.00038638888189197084,0.00805018801429605,0.020614287536088766
11.47,0.0839281979293356,0.04429056587083562,9.37206834358713,-0.03957069362066703,-0.05656837914460449,-0.005238663871406207
11.48,0.2897875338853586,0.11724399730023649,9.715210511775686,-0.025400679011551408,0.021544069519815915,0.013068230404733533
11.49,0.21549915513101345,0.10529575928565921,10.023542113962215,0.004788453140096987,0.013871358796239847,0.004443769587962775
11.5,-0.11241521860398292,-0.354213016286822,9.786460571777495,0.008303609296573098,-0.02211405091697781,-0.005805726201637658
11.51,-0.09137893970261804,-0.027972398937765704,9.97570169722205,0.013973783077832178,0.009712720614875213,-0.005107064392195021
11.52,0.09655186287041437,0.23712747480698107,10.132556884644039,0.014148589593858481,0.005564017718792717,0.022990415539505607
11.53,-0.20292266968296144,-0.027886723584316687,9.854942209490845,-0.05240086916730066,0.022910050034470098,-0.0068423505544262285
11.54,0.13992331598802213,0.1068842969527168,9.896478933663749,0.044823136335790506,0.013930266028982041,-0.0044764864255788985
11.55,0.008339411895546763,-0.009609294327182286,9.848151471612962,0.015385662894605133,-0.03568591912198135,0.017568458427999895
11.56,-0.06574424528498225,0.24797814093011208,10.153384392466043,-0.01417027272573138,0.009826838249172673,0.01917194490926005
11.57,0.09783298508159323,0.10280871840160044,9.64411481739682,0.0032525662293710154,0.014034076734540454,0.04580801321447056
11.58,-0.12283609220776152,0.07908036463808944,9.86765629539284,-0.016847146719696122,0.0037848140542636843,0.003545855082720708
11.59,-0.27964659124874425,0.01260257980197682,9.745400563525411,-0.029780577645954882,-0.014077319889470412,-0.015357762244839007
11.6,-0.07089617560799796,0.050395233409436566,10.045978074969248,0.019512608654186178,0.015143928080965227,-0.019754643880050424
11.61,-0.1615793660171209,0.05170920899848958,10.106738885729463,-0.013489428686918008,-0.008370058771049491,0.006393504472690725
11.62,0.3338189091705673,0.03190505611622002,9.532889295376712,-0.032566316259674745,0.03580662472635883,-0.0015486754018913744
11.63,0.05326730540800644,0.09717231516189348,9.970182933321338,-0.017459347723364285,-0.015391815639274622,-0.02593113121349912
11.64,-0.25681885530326054,0.25496768687933424,9.461318409643507,-0.006216730654242799,-0.0002058955824366495,0.0017402674425319351
11.65,0.030349007100145382,-0.2192179131505442,9.900080409296105,0.031692463954030144,0.016079473955816295,-0.026821954091279288
11.66,-0.09165756502165145,-0.026136025959124023,9.773715105251837,-0.006871905814910796,0.013578329353035944,-0.007474197859613491
11.67,0.02724927630490339,-0.0636156912612924,9.894487082777141,-0.007640835340670778,-0.04472579901656794,-0.048534703196632535
11.68,0.01851673540254509,0.021971836146703182,10.32937700580562,-0.03668585993067325,0.022002996565443883,-0.010259405631890218
11.69,0.07115328002852214,0.0846201798248666,9.756348202805865,-0.013539177490837993,0.022331708694447908,-0.002169380607166748
11.7,-0.21758760061994364,-0.016109475497584114,9.505247704316169,0.00478177672247761,0.009157621852972163,0.023393077672718306
11.71,-0.16825888528107605,0.06230177003546818,9.504341154647477,0.00020659249002713022,0.0004096924927144913,0.009349329765377076
11.72,0.02584197819483092,-0.1415360481779919,9.824956133267467,-0.0003609433294219081,0.0006010989368225083,-0.00873740360250134
11.73,0.2539195855806788,0.24955213469484894,9.843575237823448,0.023097900959187248,0.01683134254961609,-0.009441043502847022
11.74,-0.2850541431920739,-0.23326812799184027,10.157087401228232,-0.002833539573693479,0.010378904519403468,0.004887741825873925
11.75,0.0732883349333553,0.19749076829379197,9.553214989658025,0.009564726333169958,-0.006249163496798148,0.013226892615448835
11.76,-0.05376932592807679,-0.21625803178107617,9.474730073797792,0.02235281076311476,-0.00328624433666456,0.005652559894396381
11.77,-0.22551908252121974,0.2092105538515642,9.488460497897826,-0.002201184170322482,0.03119651904880267,-0.00972085314518871
11.78,0.03871993036029458,-0.009850594450269803,9.833561490879044,-0.0037138226061765433,0.0216827571373689,0.012659942722592757
11.79,0.32928621990173634,-0.5113909988735083,9.898729621429423,-0.03504632552096167,-0.015259707090796909,0.012929868447023611
11.8,0.2120097135525616,0.009357965020019822,9.742067602322244,-0.004207932115204914,-0.0019597773692494502,0.0222502339037893
11.81,-0.02749347941966689,0.2693617020604115,9.71636073916699,0.0069660253012351105,-0.01490143482015978,0.008635387813565869
11.82,-0.014596502275465866,0.10994368757967492,9.561084786004711,-0.019004625999986986,0.010815718694769078,-0.017833287665282728
11.83,0.10922224566755563,0.13059795757430206,9.777807906189699,-0.0045830808795648634,-0.022678276669895615,0.01061674194191666
11.84,0.037919850399162645,-0.18594830491951356,10.054822552627872,-0.01684694471260438,-0.012191893278310051,0.03320558221982148
11.85,0.14520744850971504,-0.16781721459549528,9.948710647052716,-0.0344661223951272,-0.004949301987973653,-0.04049831782901031
11.86,-0.1343235858142685,-0.18941427329461474,10.076721615857716,0.009364012580185148,-0.006901887344417236,0.010044996847324895
11.870000000000001,-0.2256886896362422,-0.2763904106325039,9.458634467275989,0.016628924017007173,0.0006653688786499808,-0.014894520362110907
11.88,0.018395532291557715,-0.02411656315789667,9.537939676792407,-0.02380746071224908,-0.001142372644421132,0.050418616767966246
11.89,-0.0031528715738529866,0.07590615498952996,10.117193290341017,-0.008628281797956197,-0.03944941656660501,0.012955292904715967
11.9,0.08649550999805512,-0.2749907345672262,9.79784850496787,0.001774659025153864,-0.024353864982046784,0.003746195597135518
11.91,-0.09798658144962308,0.1890182354296753,9.807233499571646,-0.007723501609341088,0.0036421588642782505,-0.035297384984252445
11.92,-0.41325590087741754,0.021729863154609834,10.065908417852015,-0.005636169033291173,0.032813554925286696,-0.0035128075889787735
11.93,-0.25448481269079243,-0.03275082289938239,10.303192815514333,-0.0015600430329200732,0.012428847618236514,0.022982970241226586
11.94,-0.09013944772641741,-0.1307699362629196,9.652069733986329,0.03060548778139513,0.0382380417271753,0.004514095033143321
11.95,-0.16419924835567232,0.015377944876273877,9.986544121354454,-0.0124608908785431,0.0021535858418239204,-0.017397622792460574
11.96,-0.102387788762778,0.19160601757483464,9.713095543004082,-0.00654273724536933,-0.020675310462784882,0.038802372165602
11.97,-0.021229738159830085,-0.2484061212390312,10.123414009870524,0.016867677040326184,0.008634521760737056,-0.01127753375079331
11.98,0.31168575252370084,0.22156202424295446,9.9025560348331,0.019946815876829,-0.017756485492998176,-0.015474227244922364
11.99,0.2388185086974891,0.05114838675998157,9.683531099274727,-0.0073057054600038215,-0.02153532486085501,0.000293848134941964
12.0,0.1603320792629147,0.11951371516757174,9.335728021296195,-0.026041944564281445,-0.02542846502743216,0.003782930208917891
12.01,-0.14265450653625766,0.03529410956709113,9.42018333802568,7.43339812377257e-05,0.012259282702906086,-0.026777899116343734
12.02,0.12267078350879904,0.08091770634180223,9.719014242666908,0.011992667879136155,-0.004567056268385245,-0.01004481245999414
12.03,0.013785998560914364,0.15168959967008985,9.882424742509523,-0.003458331018620191,0.00480919013461643,-0.05747718895471623
12.04,0.0060908681998447034,-0.2846065800024295,9.959562947243684,-0.00431810200955346,0.03474435493684084,0.041021253376100776
12.05,0.0956292318285275,0.2803840041394187,10.12772044007921,-0.0015067733463764903,-0.004319078989095876,0.020783641549577823
12.06,-0.1372786436676019,-0.23083199498067625,9.92229830704418,0.01729163521121587,0.012352748063402131,-0.017799343681668554
12.07,0.07032547036336781,0.10657762893773239,9.618354483510435,-0.007746912439837944,-0.004800608285931681,0.030052294326163218
12.08,-0.07033061049086836,-0.03216057411415912,9.730091246290087,0.007661267298710557,-0.009417052382596745,0.02763378279184477
12.09,0.240370620131016,-0.015227560947141635,9.528088788733925,-0.013300204025940865,0.0016176576872551332,0.005513549838707044
12.1,-0.6095438144181331,-0.1157551938613627,9.901570748813365,0.013776145313416503,-0.04256935394911418,0.0058167152615247195
12.11,-0.016894251664052465,-0.12203297804334018,9.512094766984449,0.05409053374459364,-0.013239598188828387,0.03271459781171515
12.12,0.08671496177461471,0.35385158169019226,9.576909674076282,-0.030169646331913418,0.04969590114355458,-0.0032260102210715136
12.13,-0.08572727879846423,0.08364641160276201,9.646186429560762,0.01778413799782304,-0.029618828969811627,0.03632301907886042
12.14,-0.040259372164400085,-0.0885416882803957,10.085440958787196,-0.031149202132109328,-0.057763978460834635,0.008456115369458117
12.15,0.14500765822638936,-0.06686620758135674,9.984627583749663,-0.002072732790641149,-0.014249522250740814,-0.022841818472275895
12.16,-0.22187165926981714,0.15864672665917853,10.16991755501937,-0.009951367795112166,-0.014670532962013226,0.024886581596597047
12.17,-0.0025613975658204877,-0.37427050265711376,9.681508559549284,-0.007111619119650015,0.008035576473556266,-0.01328130564891506
12.18,0.03793258295506318,0.15473689183124487,9.858099264040938,0.02137813004728696,-0.002556414142307609,0.030245575815691265
12.19,0.278915728031607,0.21010377628056132,9.849751759488102,-0.01745085136022586,-0.02000808101886367,0.026328882358491075
12.2,0.00405064638998017,-0.2802042182924852,9.429180012061906,0.004251638199048126,-0.006325564119859238,0.01774648576087352
12.21,-0.4118184731195433,0.287183129988965,9.580339478645444,-0.02402716221697329,-0.02448612076886249,0.009203659344082606
12.22,0.42277638307540644,-0.14602108874407932,10.105813309322945,-0.004597320814253725,-0.00627348829863222,-0.0004943387683630857
12.23,-0.13087130010192857,-0.023205494660869627,10.05341000169833,0.0026224062806415776,-0.028468955599782214,-0.00540919349443684
12.24,0.11538789503161108,-0.029394781333158163,9.842859762487832,0.012542712615383365,-0.00801764599986349,-0.010766761030965697
12.25,-0.100869792394077,-0.3602843112739174,9.57496293298047,0.015446269542642563,0.014157595037472472,0.0014184445717570662
12.26,0.3607682164036735,0.06862148416478317,9.741356508594427,-0.004185990483837951,0.009676374961800316,0.02895056198513596
12.27,0.1882216401370934,0.08343984932736496,10.072222094868739,0.004923935786603083,-0.009503424141070258,0.035551657929635716
12.28,0.044487385627126126,-0.20794151965053775,10.113713813490351,0.02220763843940432,-0.04566041835581294,-0.010397641021919278
12.29,0.04024185726150066,-0.18203749417166004,9.554320042168793,-0.014452902160879895,-0.019975735546145724,-0.02079139574427485
12.3,0.05877671091096951,0.10926063992469462,9.624140443237968,0.0369622392725745,-0.005812179217916482,-0.05408904351464028
12.31,-0.0014883140513150866,0.23683379329523307,9.7936894348882,-0.01793838588030602,-0.004228721448747959,-0.006402435459078491
12.32,-0.03270702535315987,0.4183017866040565,9.77015503848226,0.012566108795992351,0.049744709783432865,-0.04476563212452811
12.33,-0.18376815031730898,-0.13163263419629653,9.76500186814094,-0.028339708362756028,-0.01122058525604102,0.003390452879262243
12.34,0.025744595474440576,-0.010648830853722502,9.599405700158046,-0.016038843571780544,-0.01447082666761087,0.006693380844728453
12.35,-0.016691569079298064,-0.07351936475823435,9.83696141600196,0.033014538171629935,0.023361400579208193,-0.03586975475190288
12.36,-0.22048704687904344,0.0673914338256704,9.925228665680049,-0.014999786929887439,0.031278941751125,0.0030103237626772994
12.37,-0.10035849716494037,0.16024567165859815,9.974436500594612,0.007794706081368451,0.009322258864538331,0.012761037913749761
12.38,-0.1220662737253797,0.15981948883494979,10.216086959587432,0.04035047474894548,0.019775717249160444,0.009861352837469863
12.39,0.41721685497978445,0.11437748517574102,9.973404067790849,0.017088652526868364,0.031642452497633776,-0.004483233570634316
12.4,-0.09551778695004368,-0.16150297532218474,9.858167760114426,0.000812076710676366,-0.0006457414152652392,-0.016427837462323982
12.41,-0.003397568999999727,0.012643627714511193,9.669508029290789,0.01598868963996015,-0.01242537323778346,-0.027477144496932372
12.42,0.024521071001238567,0.1195187513346457,9.509497634984015,-0.01587514556197419,0.012400812406175635,0.009218896780869549
12.43,0.0412570672136241,0.02635592614632721,9.728693349237394,-0.012367833950221783,0.03679204190131367,0.006210049063624756
12.44,0.30054289443480803,-0.1284454122729579,9.751176016667067,-0.03585082005160929,-0.01167852975744887,0.0041087531059412355
12.45,0.09156634598755721,-0.002701673156476337,10.01113383796708,-0.01699521864520507,-0.02489989749977657,0.011929393072045403
12.46,0.305129815463453,-0.27486118258811043,9.873743393950683,-0.0328377831259312,-0.033532700960472415,-0.015857474957231606
12.47,-0.3070972178391216,0.12088652852549552,10.11034611529663,0.04124653692820082,-0.01972499813970787,-0.010212975308453135
12.48,0.21628946288398246,-0.2719703948038575,9.80749931477224,0.01609544960567651,0.011522558876894719,-0.002266246743269606
12.49,0.17041667174824535,-0.17980460769735243,9.974857674084278,-0.02092279982335953,0.001247767438304379,-0.003939406039617229
12.5,-0.059953344731612186,-0.0072671752617602505,9.737832901647065,0.018353259928098345,0.011357467530231131,-0.02383347043613265
12.51,-0.2316144347539582,8.978455069163011e-05,9.523080125640465,0.004996508812379774,0.016011477839725452,-0.0006672547509258269
12.52,0.0954371547200177,0.00952011119370122,9.663759440672978,0.015277993808678057,-0.0197586449490675,-0.003055028028692162
12.53,0.18872125215020333,-0.1450470741601463,9.634670380417717,-0.018315306621356334,0.021997349073685123,0.001453265136897353
12.54,-0.3065149072020527,-0.04174607202152213,9.590159920646267,0.0033290231304434884,-0.006805984514260402,0.008919365693451007
12.55,0.15412345451328596,-0.26355409199786944,10.182147204328585,-0.003919200507977684,0.010996733106736078,0.006342500947909975
12.56,-0.03922309746103112,0.12067344823020093,10.098112977418108,-0.02714521526349346,-0.006847237705336005,-0.015946702066929847
12.57,0.05420772455363203,0.1467903617149762,9.922651717677423,0.02093876400394662,-0.03271025303603204,-0.04552173620388784
12.58,-0.31320050998784055,0.0248112592821409,9.800945112028707,-0.028275492912006792,0.016358207514863145,0.016860345234785478
12.59,0.004855811731865654,-0.13036575291984573,9.939076740500218,-0.002376424116541538,0.012277372339182429,-0.024325372150085896
12.6,-0.258244238394023,0.04971108307561984,9.860080831115313,-0.0030178906753628647,-0.009703056601887411,-0.0037133943013102095
12.61,0.1857872532132855,-0.028171881703902866,9.854155069846176,0.027101762675780235,0.01771888771122622,0.011162041191993613
12.62,0.2064375978331759,0.18770885728238487,9.566734915747919,0.005249476472917936,0.022465759778519116,0.01369176336558509
12.63,0.19795090689482384,0.0150809872395532,9.620630682111948,0.012948651431074501,-0.007931651221033224,-0.021935260129959014
12.64,0.08530404010513395,0.07175405451425729,9.392542680362626,-0.014409984084960362,-0.004823604657123258,0.009636175175986717
12.65,-0.0813922976067613,0.1840888696146357,9.86197705104329,-0.02761589856532704,0.03142999699165917,-0.00405268704816423
12.66,-0.2853342837134224,0.005192634531040986,9.833726919538158,-0.0062723099650534245,-0.0010243601048994125,-0.007260944525704826
12.67,-0.15603108742402377,0.08622117567738193,9.606747142992921,-0.020292908431458256,-0.014786013000932161,0.0029982122033368566
12.68,-0.06298216966604381,-0.15873916887740733,9.739126683963216,0.022431676171518113,-0.02322514568949656,0.004923587290923409
12.69,0.10380541668509481,0.15536650691245277,9.742783249545575,0.015526630840382928,0.005356829140740683,-0.02021388724431164
12.7,-0.06668063710978618,-0.12893348196511772,10.03862426995414,-0.02387461209956915,-0.03435734699668533,-0.01603134146244786
12.71,0.11521902043188502,0.08971178882674047,9.261916940660784,-0.014270985085085505,0.006122070677175592,-0.025862130212645457
12.72,0.08252295931305098,-0.12999450584040823,9.593431890351473,0.005661479008835433,-0.008574367312610532,-0.0065251332260477125
12.73,0.13722767813742273,0.18951304405586997,9.874094469973532,0.013211324470392338,-0.036999360207688035,-0.0023182525804816114
12.74,0.053445923939543435,-0.0583103227623096,9.698384279047637,-0.028515953726605776,-0.0046470885587866426,-0.010999377936917484
12.75,-0.06806735614474597,-0.055282678927550295,9.856807642992068,0.03848045901186311,0.014961056107285271,0.019221213731481335
12.76,-0.10813103818618282,-0.3429999572894512,9.966994679540463,-0.01442701019234109,0.0012875415233416963,-0.008362063918451334
12.77,-0.030474994035143747,0.06256229396706953,9.825175267742733,0.008131764085280553,-0.006623115159213015,-0.0007083602342951164
12.78,0.097466357141726,-0.05812917409771925,9.495344169549233,0.0037401410213027263,0.010271046694895996,0.006420858729436878
12.79,0.06986872157398517,0.1296693131899775,9.728542380285818,0.0036055568096260127,0.007319545969254979,0.009909136154171917
12.8,0.033723508715402924,0.29272962776654143,9.757425354635723,-0.009760841689387355,0.004931007011878109,0.0166032238878053
12.81,-0.14773299525299163,0.15915276140859164,9.624012180199085,-0.03819451316170094,-0.010026018903145965,0.012653745680028793
12.82,-0.0021573948886642186,-0.13982806553319763,9.536252839866712,0.0021799362372047627,0.02196010902693797,-0.012064489101563087
12.83,-0.2338325293888916,0.3558827219592488,9.697346288943585,-0.050318700574415856,0.0173530976716577,-0.0012754517820458549
12.84,0.1644295804679873,0.2566138535385541,9.459919422273765,-0.020263468857450555,0.021102636868029396,0.013899963985832445
12.85,-0.24367267832663372,-0.13720698157376354,9.879626228129121,0.006987152791357218,0.02067007849759269,0.024818084946533193
12.86,0.18730682808865298,0.21695279978149015,9.837883860711836,-0.010077397605252742,0.027445006983426102,-0.01342630432376799
12.870000000000001,-0.2468731725968374,0.051677916110195156,9.230418938038595,-0.003359096923915501,0.0035156710588400398,-0.0244216195909665
12.88,0.0366664858671434,-0.14120434855820616,9.801196905034056,0.012011252868718812,-0.016462133432362774,0.014503188561761906
12.89,-0.17011814932246622,0.017301211688586518,10.157115293087971,0.014754908373219503,-0.017013935909653843,-0.03064941043710401
12.9,0.15261549791212908,0.16400833626453573,10.071974134261808,0.02078597750182659,-0.013216717253632182,0.030725902320513223
12.91,-0.0010389165112927687,-0.04872440372731905,9.928161368722886,0.03452102182935593,-0.03417952516170758,0.038907409491338724
12.92,0.2656068509034663,-0.07948227000029331,10.272342209976337,0.013665646451298858,0.022265637798682163,0.03357875708177507
12.93,-0.11380180426957053,0.0010767840445995891,9.834657983322895,-0.0012299410113528967,-0.040817968718398615,-0.009426595421762581
12.94,0.07904039692864052,0.12622264283091664,9.822961030072612,0.02060808548357411,0.011256734364604606,0.019503964011457063
12.95,-0.12727193934741565,-0.15244334463992854,9.929020037272839,-0.027800577578162265,0.010754543535026844,0.007053126613847078
12.96,0.07251800831698471,0.017925113900965434,10.041443336153193,0.03476945108782459,0.011398319519815611,-0.03393202039272346
12.97,-0.07553998496329553,-0.044196613637675145,9.623672358700297,0.04743468154793261,-0.001527380248278679,-0.00023707039003299628
12.98,0.06179141173542412,-0.1120637079316811,9.63593220090021,-0.009316182900227713,0.018357480062124766,0.0340057440490759
12.99,0.06428091497650144,-0.0322909672653553,9.640708528191196,0.011163965280442835,0.012976415210536978,-0.026106998065060123
13.0,-0.05642463115220805,0.25773003437447706,9.784384314114952,-0.03840655750844359,-0.005919667078788904,-0.0021622061501717824
13.01,-0.12713177111197688,0.19103026164208123,9.928993190512763,-0.021967071874201282,-0.0010573101004435468,0.006131764950065196
13.02,-0.15460338984748376,-0.04354798583148355,9.892975694981489,0.01101345184015134,-0.01245487146714163,-0.025928084652190812
13.03,-0.07609431775053066,-0.224458657854432,9.861965847795602,-0.008390221728201386,0.008954369125799898,0.01755062510571948
13.04,-0.00618435458097926,0.2406699093527779,10.19259726803522,-0.0071693052286358,0.013053348671930117,0.005144675359471796
13.05,0.09089452904020173,-0.21830091027147333,8.43861870057438,0.062213246787362064,0.5395169454233705,-0.018046933301487843
13.06,-0.11189443354523884,-0.12173131200722927,7.686309923597618,0.20369203284296677,2.1153842081626424,0.027694318302130965
13.07,-0.3087322102310805,-0.12314780682264005,7.992676520588139,0.3643584751447664,4.005314894097191,-0.0787760164948975
13.08,-0.4215402995436586,0.2125971116095519,8.996141620604385,0.4038731045799789,5.125581987597453,-0.09105840724231068
13.09,-0.45407226122518707,-0.15711695410073723,8.977957697155727,0.36122109132078667,5.152897527584826,-0.06319832779309513
13.1,-1.0354059374463895,0.07567250533585784,8.299519015841078,0.3904888039381005,4.237668105517516,0.02916783406599337
13.11,-0.8424507244690177,0.244098655824031,9.336557719265437,0.41003596382745794,2.9141501294318224,0.0417998864970335
13.12,-1.1647177429395865,0.2562078849574023,10.627470908324598,0.2826733833902798,2.375525381816823,0.0757766730896273
13.13,-1.057654990705367,0.08542808302521593,8.78871866916146,0.09387126633514506,1.6008436583731238,0.08492262140975516
13.14,-1.2726738220679306,0.3864371596490177,9.398640553072163,0.07047936656763068,1.1184869788190475,0.11260084310899543
13.15,-1.7882752926281822,0.05706520386635436,9.344004495287843,0.20412059064573715,1.5403169585465484,0.07006260410040896
13.16,-2.1976224573498797,0.19447102112917153,9.672912709482459,0.2041746707267848,2.427879765753238,-0.018972721179795298
13.17,-2.460551374783291,0.034436818924523965,10.923486284532604,0.04607970728394275,3.0072843747607454,-0.016543895396867077
13.18,-2.717469671872466,0.23248833769166827,11.648575854823234,-0.06320436634022414,3.207296318651704,-0.03542874391251472
13.19,-2.7320725235000154,-0.05813318984176463,9.41131685696292,-0.14372910005154776,2.7403770463916564,-0.02095019679775306
13.2,-2.893878478052531,-0.07278275755893035,9.814453575695934,-0.14466920232918723,1.3795413222448876,0.04905013171300111
13.21,-3.0205050807685283,0.5794696461136596,9.975112052496161,-0.21348877615155742,0.8745543085335041,0.07278809730552964
13.22,-3.193924746264331,0.42936088099801517,9.802608419022766,-0.1294625980346217,1.165461292690573,0.05431898980166808
13.23,-3.7012501063463694,0.11363399767778642,10.291458736753958,-0.09694415177074278,1.9015142611151024,0.005035741565637396
13.24,-4.0458615368792445,0.2714896625685286,10.986867811509573,-0.18759648209450352,2.500487197917984,-0.059216268300746125
13.25,-3.75214160268378,0.0785594098869758,8.579710921793883,-0.3077956870410066,2.0517774493813556,-0.007243454380901875
13.26,-3.757038824624203,0.09481345926913942,9.012578306484098,-0.3455100120069813,0.7736620956732904,0.07222178205520344
13.27,-3.8879161735321315,0.14872328355515796,9.304599980717313,-0.2046486893670491,0.5729949906196212,0.1340039336937232
13.28,-4.41986878252953,0.3661741233388463,8.8801647449051,-0.11325726430954312,1.2368650445245581,0.10302187109089699
13.29,-4.296526715112954,0.2986927336644901,9.610492476176256,-0.11397470968702783,2.121803451095231,0.012477967738545426
13.3,-4.952707240112445,0.28198688670149163,10.696529786750016,-0.27428237940158556,2.662786207228783,-0.03669656932356935
13.31,-4.521571430451171,0.3933249374543173,9.513454814669409,-0.5333472451135135,2.5468093015172952,0.1440401058201516
13.32,-4.303427192389761,0.3852184927611991,8.53567269901428,-0.7094764988662571,2.2198792742353457,0.15481477176600636
13.33,-4.971379975489853,0.39357606027970093,9.360694078766468,-0.6569868286423135,1.8153895451318602,0.06974282931489585
13.34,-4.993618991481098,0.001969381376554613,9.742014236242811,-0.4812635957413764,1.653384304821474,0.06233277564447347
13.35,-5.367819547226224,0.37695932500581397,9.969938963973224,-0.2535931756577663,1.7522541912928278,0.04991774594902749
13.36,-5.458332718533394,0.3075794711119151,10.01586190959804,-0.06805359775671929,1.843546126129567,0.024378523664900533
13.37,-4.715364862906282,-0.013935956124186882,7.6170100981552435,-0.07141185247017293,1.816333946155772,-0.06089235015059431
13.38,-4.928793735022677,-0.16235152407006642,6.76732494930705,-0.3712913086451619,1.283782415080499,-0.005284363830543206
13.39,-5.0836910718878885,-0.052520289931590414,7.29798264860961,-0.2564519146055105,0.83529472994881,0.04531661301550616
13.4,-5.548126440498777,-0.004713251198447205,7.734841173064119,0.08685927011788691,0.7610271716786696,0.12498492164069933
13.41,-4.324811854106206,-0.05140099204445711,3.9813236821691005,0.2418541912832312,0.5961360867369155,0.06075871280424845
13.42,-4.835959248363198,0.058979644875994414,4.021035838170101,0.13327297916259417,0.3502248924677693,0.06279188630329212
13.43,-4.201260793682515,-0.015088981864670593,2.2247756053551133,-0.013498214812520146,0.15500443063878105,0.01241292600694412
13.44,-4.7600548707536925,-0.1389593982816153,3.2824961527145695,-0.11552678633906296,0.0068339094523513205,0.06673073263771671
13.45,-6.547986796047611,0.030277101379173575,6.080254195699764,0.021136897714599714,0.13966401103699624,0.052476439831543126
13.46,-7.480089600557842,-0.24981851567075233,7.254541259798694,0.10245690797519368,0.41943917722122687,0.08236043340858165
13.47,-7.422655765740317,0.035690567309344244,8.057001774415465,0.09151284763222685,0.5126523853674485,0.004710056379264523
13.48,-7.571819476063227,0.2120562809493725,8.300551838777064,0.017727976805457082,0.4276903268471397,0.009181819378784704
13.49,-6.514966534811435,-0.2752560303633286,6.17951041075495,0.02350461180725847,0.2534545395445176,0.005758424873793962
13.5,-6.6621623913136725,-0.28836366454687357,6.131234313174033,0.0003402966832203682,0.12090255061767985,0.05859357835101227
13.51,-7.267876917192356,0.05248648162263128,7.047050473618457,0.07335151830595071,0.21153691835036548,0.09514565205595028
13.52,-7.251974288870077,-0.14342316145015985,7.773984544495299,0.0815207362921368,0.2920500394727043,0.05720029022935714
13.53,-7.235490209190481,0.044290914952146127,8.208903840457712,0.055935441043416426,0.3214666420425187,0.02876615555998948
13.54,-6.26977366746827,0.14915927141450552,6.341268032244877,0.02891783147457188,0.20315724603814722,0.027269620309793574
13.55,-6.8256801458792555,0.15001885037892185,6.434047639234004,-0.004600462844756277,0.021173206568473026,0.05123873188938693
13.56,-7.1508632802830645,0.3105329536951723,7.3342465093114075,-0.011857393088590266,-0.03878328200070945,0.07259507824308425
13.57,-6.849963275855801,-0.12129357950022046,7.29006722662281,0.03729695528182854,0.038297125568543776,0.05964910893235552
13.58,-6.969425324927605,0.01756903641190906,7.1824191663070165,0.018065287614539325,0.07589017067122958,-0.02219380704189282
13.59,-6.789871043490636,0.13112493331390954,7.356799205021637,-0.013100582812984828,0.006965025758196394,0.030036786638600706
13.6,-7.293851883638398,0.053017842105645724,7.4019508377323895,-0.0331331969245435,0.004954931537516596,0.06502539526493026
13.61,-5.481705295656824,-0.05728983897912524,3.8828598306308337,-0.031191327708667133,-0.0852958581975188,0.06870562220460268
13.62,-4.880625555100598,0.13208111220244392,2.924436979917082,-0.02773317710235651,-0.20685877347043066,0.06870846437261782
13.63,-3.917109811135852,-0.25362913322537745,1.7595477464930542,-0.11907649159656669,-0.2305755174541314,0.09244501964467766
13.64,-6.310831602864043,0.2109663578684687,3.88371019468529,-0.14331539687851466,-0.25956842273555353,0.06565958617747687
13.65,-8.252965155106068,0.2147670571217582,6.8659976398576905,-0.1892282155958434,0.023001946942485193,0.10663202614217264
13.66,-9.275942267493654,0.11770540472359675,8.022378587491882,-0.17714285845234826,0.4369133407484864,0.07062253972934004
13.67,-6.739826652684252,-0.2417607112111959,4.666087314698407,-0.25611508091374086,0.5416951421841647,0.0624448069948282
13.68,-7.757500360602476,0.08650117964400003,6.567492820162378,-0.2745034795545403,0.4765973735571022,0.040977318984103395
13.69,-8.723479875204516,0.10105362959300537,8.510826885036508,-0.15637830265140146,0.33467533000980454,0.07278246924454593
13.7,-8.594055284147354,0.11388873842156205,9.46887245123282,-0.08725747082506298,0.335050807279117,0.12175658677975595
13.71,-6.001288861748867,-0.1195523905167315,5.258349184047731,-0.13300997910098725,0.34442910989947645,0.07036606232873263
13.72,-7.251946814163675,0.16868765603526958,6.472567593738427,-0.15265021877261595,0.22071840333807077,0.07697832497854003
13.73,-7.52138689412239,0.2529690674716754,7.195231019897676,-0.11741547858573834,0.29723005979564193,0.07621466597854593
13.74,-7.74432229440663,0.1111771147680788,8.593373131406292,-0.04838256685087932,0.43436543473216144,0.07071206128977787
13.75,-8.265318630066771,0.2666259267197523,9.527443932147689,0.0427214489826135,0.5099623980045038,0.049732997418235114
13.76,-7.87716217648777,-0.27552211083422484,9.454104942941294,0.11508012132471304,0.42639213037823737,0.018352888904785
13.77,-5.8431049404185105,-0.08990017524389701,6.293777324075486,0.08811090098531169,0.263991061349533,0.055459809583670236
13.78,-6.180689278974099,-0.06833874968187503,5.671337072650948,0.06800195804961484,0.07570710904362586,0.041754957812868455
13.79,-7.146311262534603,-0.02472187666005931,7.2269153594759645,0.02317830413815523,-0.04240660633783083,0.03062601990423527
13.8,-7.606772593152837,-0.050153986293977756,7.63425539356508,0.08522973941202051,-0.041655249880805864,0.046496125613193454
13.81,-5.8074760021566725,-0.1650767521199572,4.213271468930582,0.035343072547861135,-0.03202873580144146,0.048310845805478835
13.82,-6.521853711846442,-0.11491302837060495,5.272085060340277,0.018234143398931865,-0.08319324247447382,0.03403339524393119
13.83,-5.0866831536735555,0.15254471808215234,3.4900745076035844,0.04300678938144865,-0.17718366650468678,0.08155855833855773
13.84,-6.596305713793931,-0.01693560747600552,4.616102833585479,-0.023525087012977088,-0.21760565189076286,0.05995205835643297
13.85,-8.149195446412472,0.03218058740035118,6.970099958981386,-0.01872865890893976,-0.04030673013360009,0.0670935432176178
13.86,-8.414198621175652,0.10052987412891035,8.588940418561728,-0.027198764200924225,0.25150878711634805,0.028522060036613676
13.870000000000001,-7.998924580477436,-0.06654331473609174,7.786135557756108,-0.010745448660352618,0.31780596169529857,0.0466289980539987
13.88,-7.317456754408795,0.0053273221318947996,6.26954742277905,-0.012400539267689956,0.28325135653262645,0.054783921445035084
13.89,-8.020266238053628,0.10112793666556597,7.962120269139456,-0.03873631383439058,0.11337722048322771,0.04344546165345413
13.9,-8.155391734926049,-0.004464506712774964,8.797005402410566,-0.004415088263350665,-0.017970411787775215,0.002626802978468089
13.91,-6.353106405657079,0.0415611982304234,5.059331566995361,-0.01653699925387065,-0.014652979741722728,0.06174449032766892
13.92,-6.487583153612522,-0.2398493070219685,5.603882194179622,-0.042993421357451676,-0.05161436731193431,0.06733776662305131
13.93,-7.18552229448176,0.08465167015785291,5.719327030369298,-0.01374886972742752,-0.04350251006339319,0.07404831634299999
13.94,-7.18284496870437,0.1606823505405851,5.9615094439793,-0.0005910730437101511,0.015329142902320056,0.04535065572913936
13.95,-8.151529167815921,-0.2515308067185569,7.914914667090598,-0.00667660848587856,0.0751343996954646,0.03426129676425373
13.96,-8.579310667907663,-0.151817924105623,8.519711196603607,-0.015719945797678922,0.0972589095810858,0.01577621220552682
13.97,-6.076744337558981,-0.08681239498633071,4.5118584866017635,-0.035207822044892714,0.061104585264447925,0.028534812190225366
13.98,-6.552247995595499,-0.0029844827021540746,5.539087732572167,-0.038686228232914975,-0.04455900316093101,0.04385026723000658
13.99,-7.865957311980798,-0.09689446607980644,6.978147699522897,-0.06538501273429805,-0.06350131080867583,0.07582834919954348
14.0,-8.242172543760699,0.11118916461871653,8.33600348881384,0.02648189782036922,0.047864314987857315,0.034924647181378644
14.01,-8.076022860422396,0.16353689668966706,9.04338918817619,0.010594665737646034,0.10166214510436761,0.04991058255452112
14.02,-8.008248575416802,0.015521027605578774,8.903171258008047,-0.022723752105837772,0.08410074717801695,0.009633405673951507
14.03,-7.705431942877836,0.08078255958159525,8.492722568159028,-0.008679931053209133,-0.07531402282655433,0.03791328314541816
14.04,-7.603426510544646,-0.09916583781632565,8.47225238105487,-0.019619012852039527,-0.25323990518948175,0.05190576335480318
14.05,-7.212490639373521,0.38592619944541884,8.005257960757445,0.013718540534258023,-0.42851820527013923,0.049032822235733964
14.06,-6.442359428672365,0.2343310272963916,5.299244500536169,-0.006995040634017999,-0.4852518150125961,0.08589552223152533
14.07,-6.436903229284382,-0.010202183696629064,5.611740091780148,0.011847411828143972,-0.5588346430354887,0.054725277461011405
14.08,-7.251093955016585,-0.04217447641481481,6.478984124128052,0.022362410300429358,-0.3587458866790342,0.019942258370116733
14.09,-7.423966267869871,-0.04019605339414034,7.109329047915291,-0.037191101862286656,-0.20296847812884417,0.018199139579602897
14.1,-7.598754249968055,-0.0970836534412733,7.392830471325261,-0.00045830059216612345,-0.1562905557747778,-0.0070473573230657935
14.11,-7.441545016862561,0.2174668687362463,7.526779008940548,-0.01864496732460757,-0.24213258806318333,0.013249094263953078
14.12,-7.596695235700208,-0.0406694765452862,7.371653909787052,0.001443007623078663,-0.3141236405212599,0.039120698809557534
14.13,-7.228751686063753,0.24264494846046253,7.169820443697352,-0.01543160628625082,-0.32816632191989353,0.04522549769838634
14.14,-7.360748259223561,0.11927979202954148,7.124600857314939,0.0009670190054158548,-0.19975555319905738,0.0324873587021777
14.15,-7.491522494889192,0.179632386991815,7.576593113866827,-0.010035107184107245,-0.11826261558105194,0.017388457523471686
14.16,-7.381405603919209,-0.08446658927561425,7.4658336487301105,0.04169035816402582,-0.13297449355676494,-0.004676994247113996
14.17,-7.078710108819693,0.08686940138814418,6.799620583634435,-0.017557736868885773,-0.22602807354995824,0.026321335754922827
14.18,-7.143346869025197,0.12086488824749031,6.852816717712931,-0.02152872661310449,-0.25814495324759434,0.01210223672503968
14.19,-7.100735340433783,0.2750893927983037,7.3117460716446505,0.006481953667422879,-0.14804537230596299,0.09678278938802398
14.2,-6.301048956187338,0.2561259641314257,4.986687560622326,0.04361375631779644,-0.08438085303644675,0.03558657437484197
14.21,-6.7089288338292725,0.10334083901876444,5.85665996947492,-0.02768111773123089,-0.11525385859096875,0.03023330376280755
14.22,-7.24066011931122,0.11287159467505949,6.485637048866652,0.01693612334456288,-0.051051233880572006,0.05895016454019179
14.23,-7.460582909397599,0.059183269656300524,6.626138031281262,-0.008614216681953859,0.004007813232440066,0.047321612686116385
14.24,-7.329085526823238,0.16627586206599632,7.2093773136247075,0.014696369559196235,0.03648520583035834,-0.0006575881431435948
14.25,-7.543809625192278,0.2189302279802548,7.691026778835594,-0.03294859332329184,0.1455123480731381,0.03805317896456755
14.26,-7.430059518125108,0.034898272630423346,8.042427288845506,0.00788006865908271,0.09978903985925996,0.06403376959818662
14.27,-7.238816172635145,0.050439396822462915,7.565560532398574,-0.02770348990155134,0.06065691928277955,0.030607015275456645
14.28,-7.22593147711536,-0.13253221848021732,7.2691117705260035,0.012783787880615186,-0.012365122293057373,0.04656101870006744
14.29,-6.329943643510982,0.3867642672080241,5.621363190120098,-0.0019127678546334449,-0.026810493286404793,0.006664747291681476
14.3,-6.585126409905825,-0.10703922981888514,6.330086424941396,-0.006997856591157188,-0.081771051344573,0.04077875730601326
14.31,-7.252938053243522,0.18919984229068762,6.899262039629991,0.02476864956490748,-0.06675709136568102,0.04944021851962677
14.32,-7.123193176451558,-0.12113520810701237,7.568348508818999,0.008212706618207421,0.0379135181318509,0.04366901016046734
14.33,-6.3508230793927565,-0.29196348194851207,5.214017896882429,0.0398647711373118,0.02513521223504562,0.043523123950374526
14.34,-7.334430389877789,0.3998257650023551,6.792672717942505,-0.01343348476540555,0.012369493248796357,0.038656644063532516
14.35,-7.620719156165222,0.06106370689177469,7.768579261800379,-0.024581998982966622,5.016112447196047e-05,0.01964019769065497
14.36,-6.761108825089911,0.01675305917652753,5.70260841590751,0.0008771090918248,0.0642569589768553,0.06768915249930488
14.37,-7.124313765607162,0.05929219895088339,6.188476448196335,-0.026078244606309572,0.04493733870556346,0.0842890500164448
14.38,-7.4257081945385055,0.2332161196791417,7.174295750402109,-0.0204402671030594,0.04697991792869076,0.06945607102196592
14.39,-7.071928326891338,0.16977405236157306,7.330539346921025,0.01655238886312433,0.10813911254982006,0.019596701640072732
14.4,-6.694769207035313,0.12245241596963038,6.491341603729549,-0.005006489386482851,0.05314509555552571,0.02911149526658191
14.41,-7.246042890790704,0.03536492486058118,6.94173702463687,-0.04257991006871423,0.0988027254200253,0.05162292338062887
14.42,-7.466652773697053,0.38688279329514963,7.706918472774379,0.0042082684784239596,0.10679304649851934,0.033026869566686
14.43,-7.192857262985554,-0.05189243701063556,6.670946269719767,0.014755598123344234,0.10430347773097708,0.033758019064317524
14.44,-7.202613201033863,0.2502406953487785,7.335615202874118,0.005223385434313361,0.025435793205351172,0.03880700928613741
14.45,-7.287949318889345,0.1570840147946392,7.2832048912779035,-0.019605300892079486,0.010232931880646001,0.052274236290390366
14.46,-6.909904151805135,-0.15853581977079267,6.793887827450081,-0.01601959913317642,-0.0066405958783864495,0.025420311333645577
14.47,-7.3125515218249255,0.09107138086904103,7.290090646741179,-0.027744942600033254,-0.06610775897576478,-0.011984987952927448
14.48,-6.868078694609982,0.30141904934149716,7.117915079953825,-0.0058219230966790655,-0.04529890109136146,0.032543023485949625
14.49,-5.709928962530587,0.44011695303630793,4.149067773435501,-0.05036989321719044,-0.10453251922954987,0.00846891023097937
14.5,-5.919568312263747,0.41554206738271404,4.73298085028837,-0.02880458613960476,-0.13930266691806242,0.03443225001842966
14.51,-7.163726798844497,-0.01254295881705883,6.278344855679951,-0.03195479246910489,-0.09296626900775379,0.0032890009088847663
14.52,-7.57524462493135,0.2961855017786754,7.0438308205607205,0.019726976114921344,0.12998589223079665,0.08925954789957465
14.53,-6.356733242924448,0.12587439324831196,4.96503804049332,-0.007615555978878129,0.20528412794771508,0.023852180675558964
14.54,-7.553631996675078,-0.12827549638493382,7.064296591003679,-0.013639242679800467,0.15844741801346982,0.0458757849359865
14.55,-7.905650782374257,0.3284811952934188,7.797859446599754,-0.02948329383181897,0.1610535606092326,0.035307211790229165
14.56,-7.036239180382547,0.5344049265163694,7.369896311868091,-0.012966707162541242,0.09018482831046946,0.02487123663103621
14.57,-7.742660819266817,0.16048346557006177,7.834655932101517,0.01976188706627463,0.1263398030645363,0.04954809189390731
14.58,-7.064077312313147,0.23553064574718843,7.779562383650645,0.011152962388162692,0.17356399611644252,0.00502934977721551
14.59,-5.984037867412468,0.046185254159642974,5.193405879715157,-0.009906043126201686,0.13293614373473994,0.04517211536126884
14.6,-5.651666266853973,0.49517940670687977,4.342514002835905,-0.0262361402075311,0.05420967732953903,0.0030784732499489764
14.61,-7.319805593345966,0.2370593575664459,6.191464149910913,-0.056551517471482904,0.013174632061967716,0.04104150344865846
14.62,-7.475106059806537,0.3908532037773101,7.488608944448208,0.02737357790763858,0.04326461705739952,0.017707653038598226
14.63,-7.931206832629899,0.19340676188922196,8.211849996643958,0.00734300549329465,0.1791894163102774,0.059011771406030256
14.64,-7.544369744051077,-0.08846793077336812,8.494112937724488,0.028240913036524682,0.18502394264686678,0.020169550144127125
14.65,-5.862034019022379,0.30559786745977674,4.536260296950506,-0.0013505393639466207,0.09178773073198483,0.035563121144383966
14.66,-6.67479364903677,0.2403380980211026,5.3736767567142,-0.019912768061077325,-0.05895499374753432,0.03371449559905153
14.67,-7.783189552782661,0.07473777006371021,7.3643675014897285,-0.00804890123447576,-0.027207137339817146,0.04841002793055202
14.68,-7.605633171260852,0.05930065989139646,7.982840335465256,-0.00760335548655899,0.07297215637530738,0.05338893801156587
14.69,-7.484222060326041,0.37043794395038054,8.072460372094431,0.01995803873649276,0.12429750550577004,0.040342915132743136
14.7,-7.858038940556303,0.557713031810209,8.240806817368078,-0.02871507238912723,0.09410642289831124,0.02462059212142722
14.71,-7.552961555662215,0.4144224939913549,8.257068313924705,-0.00880095793108846,0.0344408084407378,0.01660308491415107
14.72,-5.952921450863651,0.06369127412004183,5.0431264515474865,-0.01068843538402915,-0.19859683550291676,0.03574077367537773
14.73,-6.731310520317393,0.10720394229784311,5.607459292449648,-0.01383413786981539,-0.24333291760784773,0.08249767939251573
14.74,-7.1948795074799206,0.4036683286856403,7.101686742642227,0.013428891747855323,-0.18357207512389645,0.05632757229545768
14.75,-5.104434617247938,0.5461285097957382,3.5497831184255757,-0.022033910076773737,-0.05616271672457262,0.026279280041605943
14.76,-5.67782397594424,0.3397720601071711,3.675934635892016,0.008770134065968296,-0.08075363624820726,0.04583157405767242
14.77,-7.9718845038051205,0.1439803839984226,6.197522635756647,-0.04600226853063292,-0.03201687360856689,0.09243056901045918
14.78,-7.328236279770456,0.24222754870090837,5.815557342298448,-0.04544550886650435,0.0671040772210283,0.05491468778251171
