t,ax,ay,az,wx,wy,wz
724.72,0.0357939704516921,-0.06894702944747237,9.643108655754327,-0.013311759923971246,0.025246027594681572,-0.023030691656983387
724.73,0.0020488439648612975,0.10844450639791858,9.747898601239402,-0.02944734758732409,0.013119496588947399,0.022973253911157267
724.74,0.14991798123772748,-0.13090319391865277,9.591879364534769,-0.013717992962887624,-0.027038766225969398,-0.027411547355940515
724.75,-0.2576486894980725,0.034638021638215395,10.30934026338954,-0.01557710729452193,-0.004953521718088241,0.0042412195058766835
724.76,-0.02411845510848584,-0.09055331695667004,10.966226635758217,-0.01675835020351957,-0.0061132720049094135,-0.007541453635257618
724.77,0.0974241793898328,0.040260556580491935,10.704550860434903,0.0051404245923590206,0.013002083162728932,-0.022525053429899328
724.78,-0.1306636063389541,0.17399707325456068,10.708799316151621,0.03254400398078267,0.014985140476887968,-0.01237586968497705
724.79,-0.10510852304859573,0.19350169784034854,10.607543902859112,0.010521667648787062,-0.01853789030940762,-0.025546914611626885
724.8,0.00043057166399774734,0.09268003691264781,10.856753088409485,-0.007392677433163819,-0.016681506418053892,-0.007748930315738685
724.81,0.04881512799127171,0.3845437675401477,10.523290884286888,0.009686705818786157,-0.003329031980403177,-0.008148839035425324
724.82,-0.24504879872637028,-0.062438189228382075,10.29988907883018,-0.005380896132391658,0.0033348060764233304,-0.005699145981167967
724.83,-0.3506451604597355,-0.087279040493415,10.517312889634038,-0.004137699056276409,-0.00697622618357999,-0.031982854006181026
724.84,-0.12879427400876117,-0.2732474403110695,10.44383920268039,-0.02199943681454812,0.004227340230965738,-0.011580110354024628
724.85,0.14327186085491112,-0.018647447060769085,10.275831416423111,-0.05215815666778205,0.006877270653779287,0.02411855715459209
724.86,-0.14345091495323506,0.11233316681595142,10.259126476089891,0.00036320877638679774,0.0003075646736278506,0.024801079452711806
724.87,-0.08858680135875872,0.010743778958438144,10.334266172141174,0.023957389987132132,0.03124730920997073,-0.010469410466629215
724.88,0.010534450988387655,-0.06315021706749512,10.47506806228219,-0.016826215085776988,0.01662598968904842,-0.06095820566090563
724.89,0.016674854108826326,0.01732898797654376,10.310668311442386,-0.019410463194374044,-0.01526644052827359,0.0013694280844928678
724.9,-0.1631630525975651,0.12173304957496832,10.459598549865262,0.0016140848030061982,0.03121561825964622,-0.019816028824196617
724.91,0.1894109925511877,0.18483735227752676,10.10694868358823,-0.015759819151130727,0.010864497035251827,-0.01625807748187438
724.92,0.027103150626353004,-0.15165153710892323,10.175053053007646,0.0017530904884973078,-0.04281137471188083,0.002801368135076833
724.93,-0.0041256237014153175,0.20399099844815055,10.198114018725148,0.007489889709042804,-0.008986890741550714,0.002603021788934114
724.94,-0.035331349865692974,-0.07021175798331591,10.025438175897259,0.008282650329955805,0.0105839080987054,0.045454895993823685
724.95,-0.07667974340549916,-0.4170129395434762,9.883003849781424,-0.005655899623404719,-0.01774749597438257,0.038443390964818705
724.96,-0.1560553503790707,-0.07714402145527226,10.00006730587789,-0.006766634717767326,-0.024744459969975933,-0.008363383212748186
724.97,-0.004077427918711794,-0.07305162776219765,10.1415570606833,0.031293929587090534,-0.022205230817139522,-0.00028790425452722635
724.98,0.15015382082585163,-0.03268188864718886,9.943350098877366,0.0012185047100568783,-0.0048287080849106255,-0.042769446514767745
724.99,-0.22039667165258095,0.08701502916770454,10.105980810611966,0.021517138128429824,-0.0012809108199615567,-0.003306552456629084
725.0,-0.1887261705933424,0.08082547888102866,10.025805342652498,-0.0033636120812946895,0.0039777623258801294,0.06567357777374692
725.01,-0.04301163421545172,-0.13500717020653755,9.802959783875435,-0.011352338921409827,0.004732277727984693,0.022229637763012258
725.02,0.06973456623742913,0.11201657767635835,9.581734744227141,0.020582268398716127,-0.014889539214072933,0.020837080459911887
725.03,0.06395123879985752,0.1075763900400812,9.930735763172466,-0.010638119116040495,-0.011890039025757339,0.01643973745977262
725.04,-0.3298175637477506,-0.2166157566092961,9.760001676628637,0.0017030681320980893,-0.01589650100144111,0.022971027995163255
725.05,0.01053208324074816,-0.03542703056125833,9.94064663353036,-0.026069173429890076,-0.0034343060097866925,0.017690993435968888
725.06,-0.03607561787616648,0.0478392475440056,10.300699633955833,-0.020033199834364527,-0.009712044224167006,-0.006837825432157897
725.07,-0.2763103437798924,-0.057131894659761595,9.6999651616291,0.011182685392140488,-0.010831026289695709,-0.01051355822319185
725.08,-0.029561946207912724,-0.059863819170883945,9.834981086489503,-0.00046451838832793434,-0.01427403494649828,-0.012954263684659179
725.09,-0.19060839477518599,-0.292262034592896,10.207993440180509,-0.0010895270106755965,-0.000766874599961137,0.0008933365806533412
725.1,0.262308501127444,-0.24155673157001004,9.775858008621869,-0.011590833958356502,0.012663635092230481,-0.003005458832987947
725.11,-0.03542721089299913,0.20182919191759902,9.817510941129271,-0.00269342527544983,-0.002594063834950725,0.039002520149981096
725.12,-0.13902225542652605,-0.10300215608031334,9.910343122432398,0.008897085503452133,-0.019068765163372338,0.04626216044828898
725.13,0.02107106642384545,-0.026718388379870357,9.899792661667949,0.025539182341295274,0.03153769544018402,0.06345483288079687
725.14,-0.14401517106884443,-0.12658381970409643,9.685916297104862,0.003225562456322525,0.008367825914753067,-0.023421385343590777
725.15,0.18051562643489685,-0.16569702730363256,9.695956367250965,0.026818873587890334,-0.024579671500758012,0.026256049449395625
725.16,0.20141627002933,0.11141054733744421,9.963392884473413,0.01773664296026372,0.015935342499412173,0.01809908197335304
725.17,-0.1912179204398381,-0.14187451942108867,9.813808753464334,-0.013586017260819089,0.009106072236475167,0.012704536775038354
725.18,0.2874487624128718,-0.08349154656346722,9.64273383408894,-0.011055159864396018,0.002037495986821655,-0.036125760414924706
725.19,-0.07989131141681942,-0.1038939121522749,9.823831709184303,0.003763868607405571,0.03573768115091503,0.0024814418291687983
725.2,0.043426229622963206,0.12370411068774813,9.973478937849979,-0.010592779363335653,-0.009386501600637477,0.004625676697963165
725.21,-0.2622672756465857,0.016749805970047608,9.957402313895354,1.6071715533074217e-05,-0.023572846386551178,0.009223371469768298
725.22,0.07354232345036957,0.25255257859153213,9.753709001562626,0.01992727739406574,-0.014770805884410468,-0.016401375673211687
725.23,0.24951246329447083,-0.28230569579438597,9.910913569082101,-0.010450936540336676,-0.005112688696189183,0.023756753182642268
725.24,0.5170174536192444,0.06723280135053744,9.460887937707895,-0.04079056913688515,-0.0335843239503605,-0.00043813570122069656
725.25,0.19566065147565115,0.22353907234132256,9.600690295435141,0.014847360073042248,-0.003050918634560052,0.018778794527879922
725.26,0.06623501311490354,-0.05480224368964833,9.911051436460834,-0.0018931094236501707,-0.017624323435778556,0.007835977387166609
725.27,0.0745136288037968,0.03594857715243193,9.573926710982347,-0.010312072440171943,-0.008184610586297382,0.04202545397476758
725.28,0.1580870557442334,-0.24955122267353802,9.742194270055862,-0.036505159522224245,-0.02371287350010193,-0.0006538095380936302
725.29,0.18845298722887016,0.14722842577446119,10.22102335903369,0.024563142822281458,0.042240318022487004,0.011831461980254514
725.3,0.15839992905364203,0.010455242086329128,9.803768417855538,-0.013327689075672423,0.007806726772552532,0.013011384871701335
725.31,0.14605052015715217,0.17196387011031214,9.989931542337622,0.0066502219789990975,0.01646862092146265,-0.0159316882311045
725.32,0.027345508359142196,-0.03262083381200788,9.487538966719399,0.008280266615253754,0.0010105645965105855,-0.0091366151179935
725.33,-0.01863407508179973,-0.20801866574664135,9.163480124556846,0.001377381496437758,0.0323802837426733,-0.02201446907947632
725.34,-0.20689107873880108,0.04119056649093126,9.329673023986599,0.04074816621545088,0.03120782435967267,-0.0005521026674874527
725.35,-0.13921562166592477,0.1556944427753777,9.663560838281759,0.00643438119830994,0.024242882496955408,0.013880964211851858
725.36,0.3060282276621698,0.044040195877891396,10.051316237425599,0.030580718505142553,-0.017992675150269512,-0.026534295162256506
725.37,0.11756012683090068,-0.21033769203682232,10.051169881737398,0.02327991032010982,-0.0006820896135240105,0.012540310626233595
725.38,-0.12747330423586056,0.29354424123591344,10.184266241134617,0.0011832768563274753,0.02949302702711036,-0.004746566574296765
725.39,-0.3306897353382619,0.006816513713286204,9.762870664092167,0.011189291021621178,0.017443745153950495,0.017050477864562763
725.4,0.0591712311283022,0.16552276227716226,9.975247238211391,0.006238098320495479,0.009182698697486448,0.001214477672212725
725.41,0.32863819260729127,-0.10067077435461295,10.126399622845819,-0.0017552925994349386,0.013837942148054276,-0.008449090466022897
725.42,-0.1838783016070149,0.3575974629384823,9.733578327800966,-0.008401818558978173,-0.0031879923180880153,-0.007839251582130275
725.43,0.022549895212606613,0.07825231650852775,9.814333815330908,0.016100139360344056,0.006472997703928359,-0.012850969889194711
725.44,-0.00843147663009939,-0.04202836313791594,9.698719477487147,0.004668609880488,0.0023820722525738653,-0.012573949775233854
725.45,0.14546353551382743,-0.02270158818608813,9.972575339110403,0.023812729585285585,-0.00929963445432407,0.0036721516424453532
725.46,-0.2812964898840575,0.18477532239781658,9.615046926576793,0.027673214961418627,0.005404441442412347,0.017730204967401117
725.47,-0.05082585203698225,0.14507627435017142,10.08271814537549,0.0169095961003782,0.002120943517234441,-0.050409260589174346
725.48,-0.12672609609175747,0.2590440723254904,9.846340940926577,-0.010403488684385863,-0.0005846649836041908,0.03317708509758881
725.49,-0.13911339887265156,0.07280535130295387,10.093449591481907,-0.009702320150919878,-0.02146585624728002,0.016728330399991623
725.5,0.04443193553808791,0.22707388040235912,9.731519916073731,0.004173228753926561,-0.0015255168674171732,0.025962081508082095
725.51,0.0910465626815305,0.1541758702097105,9.899956249921216,0.002735959408028235,-0.01263334255620269,-0.00389934532440903
725.52,0.30320328003608177,-0.1431119324206683,9.766496772491932,-0.014016816783433061,0.016925978605773166,0.00509500832621248
725.53,0.03250950044747426,-0.012168026681303606,9.81315486291895,0.018570364997372486,0.01948650942551081,0.003933752458322259
725.54,-0.07475451193769772,-0.10607678015260184,10.073959119587839,0.0355583548616246,0.008952612522572826,0.0076171620710797725
725.55,0.3436875239758121,0.34982800066433034,9.852023939482343,-0.011346547909213097,-0.014905672362810438,0.03973165552956975
725.56,-0.07294577776027501,-0.012141112988335812,9.871271836955744,-0.0061414257856903815,0.03909189963437639,-0.008593293312192633
725.57,0.058151517186857155,0.23465961364791268,10.067016837507644,0.0010006710530732676,0.0385967527873521,-0.005031070424454241
725.58,-0.06422902378400541,0.10223673403773675,9.718018287077845,0.02868369456346136,0.004770892419509103,0.003289372283218198
725.59,0.11247263788958818,0.002825010365387497,9.422265907835277,-0.012961376823470006,-0.001965360818378883,0.03385146732496297
725.6,-0.028828646679782702,-0.21240295395886122,9.671167234426251,0.030440868854067937,0.03128940134239703,0.0069087931019900396
725.61,0.0511845646918065,-0.31065051296235885,9.6415588134763,0.014367062642409034,0.010986101128550814,-0.007625046747625719
725.62,0.24786594586444965,0.10209834040450534,10.056107976467798,0.008971630120573245,-0.01830033248438026,0.03588308566611326
725.63,0.28954383108911524,-0.06256098914267957,9.628211276376042,-0.024739611467367223,0.006689228710133873,0.03284779585457695
725.64,-0.11149946480553553,0.09325548692777678,9.611105644373813,0.002907913074326235,0.0027211696589522177,-0.017199734338054967
725.65,0.17914905285563912,0.26724914907559627,9.588308930092548,-0.004428956931589496,-0.03937494888162887,-0.05132588849812987
725.66,-0.29690264719975207,-0.04217437427683046,10.048786170450521,0.03173705543846826,-0.032056272316276876,-0.03519891548079576
725.67,-0.2478903396587959,0.02596908459926654,9.801520272924057,-0.01589396217522942,-0.001260097106058002,0.019404076068238293
725.68,0.06732231097423037,0.08991552603827202,9.714099909645155,0.013045204233941737,0.013834087415921341,-0.03522493471610456
725.69,-0.2043210407052332,0.03095696110835122,9.795123829130432,-0.0009189091736259444,0.024556627799279692,0.021718871123881243
725.7,0.20862060856401854,-0.0387724455552799,9.525033321963337,0.016569491303374546,0.005041897737309956,0.002165920884179076
725.71,0.12482573778854711,-0.21639314228607742,9.675579446990133,0.007744958358990988,-0.016352183214824182,0.0068151218864907935
725.72,-0.092442352084637,0.2712389422420464,9.825125251218855,-0.013553919284281726,-0.022897555913881793,-0.04010962203475841
725.73,0.2155762083185064,-0.08140616068799894,9.79108330822387,-0.014063237528057299,0.00926561562730811,0.01509562885615744
725.74,0.2012529267104318,-0.008723347167610099,9.53549767606507,-0.020800181259598115,0.020556378930564532,-0.029456159821744408
725.75,-0.08358955633893468,-0.12096622837558559,9.540734571650807,0.00459068288888525,-0.002739304970834786,-0.00851266879056398
725.76,0.21294343496530788,0.18094670134736507,9.79241876391265,0.0005493366226878684,0.02604063953962576,0.028681061973835614
725.77,-0.3072862549008799,0.12549443651263154,10.042876328713067,0.019806271486861073,-0.011595243381200857,0.0067882192851644
725.78,-0.06782646052964503,0.016547628672235675,9.845713851857203,0.029533519177152013,0.016918196299296622,0.008248197207914618
725.79,-0.11573241758454449,-0.008617871483479035,9.868885619890206,0.030792899527780176,-0.005196786078301429,-0.0027623367210570363
725.8,-0.17222464541425442,-0.004240614081947085,9.870871207797098,0.002359155143000697,-0.0014708782750373665,-0.0008892078315214298
725.81,0.14874364042223728,-0.3505425799091975,9.897367262082636,-0.0251411160043657,-0.007391542341994348,-0.05620163963216457
725.82,0.16459791648075822,-0.11865084401527905,9.766177651306847,0.01344359906884737,0.009054163270443916,-0.004842652552595753
725.83,-0.37219962096442905,-0.08447931842341463,9.844517904577351,-0.036832580104451604,-0.019893417141291954,-0.024631308930878632
725.84,0.09695489905783634,0.13619826270820645,10.20135021767666,0.006569751358160512,0.010440550511256669,0.016605014599742608
725.85,-0.053611746318688515,0.36209478955079744,10.130322939209575,-0.0028845289878882217,0.011124916981459567,-0.00017831510239071547
725.86,-0.25547919138260944,0.11906345009278513,9.445585820170145,-0.01917775412161697,-0.009455761048446082,-0.003587366063068044
725.87,-0.15121542475488325,-0.15891506469033229,9.660436256387797,-0.004803777700825355,-0.008079183898338838,-0.035031172412094136
725.88,-0.04688656172643764,-0.04608045889720333,9.70117797086283,-0.02066645967857271,0.01659473342461226,0.02385756634868351
725.89,0.3220386257417603,0.22605516213517307,10.053920122287577,0.016270532805029204,0.033108926918905136,0.0047182097307412255
725.9,-0.23987756307505978,-0.1790324084415295,9.954456067616572,0.038683739559237096,-0.0009340471012117583,-0.002035634228100155
725.91,0.10983123957405638,-0.0071847233949794516,9.801282446194922,0.007468175032817607,-0.011579702522185329,-0.027080063985520937
725.92,-0.20662460926235296,0.05258546791523218,9.981894194306202,-0.010008147852124283,-0.0051381251386800695,-0.002602304554047466
725.93,0.13938708466496028,-0.038424441050311016,9.767315289026891,-0.03509585692442407,0.013625209046572433,-0.011927437346306568
725.94,0.010737248120452356,-0.09024347265089226,9.587797872178143,0.0015837511117842045,-0.008767453159294818,0.0028511456160881334
725.95,0.047454396669202724,0.24122154507914909,9.682452187208005,-0.00029165552617324623,0.02017309460049291,0.01078342427078458
725.96,-0.07875546409524997,-0.10466212147615274,9.610482076233799,-0.0273173000927663,-0.018212029800304053,0.02946572862124571
725.97,-0.28860879013777013,0.14638253382984034,9.7391543002136,0.026263552556178304,-0.010254101668850393,0.015837355143268415
725.98,0.20033320132883248,0.26308370107508,9.446205541402911,-1.0886612747203668e-06,-0.02064987877869763,0.0010661999656066774
725.99,-0.42451704872881757,-0.09546996903015363,10.128202643704146,0.016108382973529546,-0.023484331018029367,-0.015151276929639827
726.0,-0.18355972631382067,-0.20400534667391226,9.822688342360165,-0.005351157556033402,-0.013656532368878578,0.02432503253205561
726.01,0.26123762255005434,0.11399796185664718,9.835588710277142,0.009726549145295556,0.003622552525982874,-0.007320488822772866
726.02,-0.20401150206763122,0.28865428457515757,9.695706104051501,0.024150615017866955,-0.026477606049477454,0.018843476218410777
726.03,0.002304397925254498,-0.5154275202436458,9.844642244190961,-0.0002074203480576746,0.013535677070912881,-0.009460649125102276
726.04,-0.017437598686158257,-0.12777472767663892,9.856940069600391,0.01585475175534907,0.022124163441952543,-0.00394651701997889
726.05,-0.10055914521344786,-0.054588937557126065,9.835449052025464,-0.004675800060786907,0.012297924506811577,0.003928428950774546
726.06,-0.2455620541578228,0.2136949337786535,10.140701674823863,0.002439040093982673,-0.04458582856599415,-0.008220245757249937
726.07,0.10312767390311359,0.07144233569136917,9.672404175514375,-0.002317062791277507,-0.018336445061332262,-0.008897975051180102
726.08,-0.39282325145023744,-0.10667950424891365,10.105537205982488,0.0036005754227911736,-0.021171528976701496,-0.012087932998115766
726.09,0.10740476877953199,-0.1253409070773665,9.987579400995356,0.006400307173226039,-0.0006359653437993403,-0.00819495945122788
726.1,0.020394979290131905,0.17230348219346192,9.799177009153158,-0.008861454455500377,0.017083916286837083,0.019830553488359732
726.11,-0.015899966294212132,0.17073272086753555,10.024483684117348,0.0446155806902031,0.01557243990339946,0.020685319172779867
726.12,-0.03517208115968644,-0.020937555362222915,9.565522840059316,-0.007542562698324464,-0.007586780245193373,-0.0007321399092614009
726.13,0.21258412043831318,-0.18103822394920957,9.773335838741538,-0.024039663994005023,-0.02779013593017217,-0.010683529332163934
726.14,-0.16586715923743506,0.08658604711431798,10.053959392946826,-0.010292413400407058,0.02126060582638511,0.03655507159195116
726.15,0.17605609246505882,-0.0229010579429712,9.381621810354066,0.013881559024374235,0.015275624653635288,0.005156178512594171
726.16,-0.012644781115035766,0.0667032767394834,9.527686774750846,0.013776203293659712,0.023370406653683697,-0.007559674599247189
726.17,-0.3213344502935598,0.10025090570770474,9.450754015283332,0.03919525330693827,0.018489713807174072,-0.021783735675377402
726.18,0.3878575218902897,-0.02451432124761273,9.725473030948262,-0.011874560645918446,-0.010984438726682897,0.001750865307901299
726.19,0.16004435055528132,-0.026802062208232565,10.042035802951862,-0.007270935931648117,0.0231951213416094,0.028419273554984522
726.2,0.164819558475023,0.1478543079959811,9.559745206325339,0.03432814391467301,-0.013962568104650495,0.017186732659310953
726.21,0.03278582823889618,-0.1318234952367308,9.33323009414466,-0.00964268139459211,-0.006072169935553485,-0.004826477535229537
726.22,-0.10820770687176179,-0.01332375053359942,10.140355819273058,0.004181148822800054,0.011463720975891451,0.010301554975569546
726.23,-0.024326938935227856,0.11440405133878255,9.89173972370572,0.008568321464953146,0.006430275960650089,0.013097589109774413
726.24,-0.021849711474305422,-0.05427657767220363,10.007112534729547,0.03474511588071073,0.01881049819696949,-0.004452492900013437
726.25,-0.16192871185768012,0.19516651318780426,9.900312091503856,0.010663625323537082,-0.014198234925175452,0.01644793283421518
726.26,-0.11948868488702409,0.14139866761499606,9.667891015665363,-0.016386897105498927,0.03751956574168509,0.03668431537999445
726.27,-0.16575889164891033,0.010902481100227854,9.664228301698035,0.028851707192899527,0.016384117357544435,0.010360733730975732
726.28,-0.31852829074425004,-0.2160404365837074,9.56225258141478,-0.014883752059389051,-0.005346058060072777,-0.010444510232402105
726.29,0.02766948831525246,0.08908256215852585,9.571807641290734,-0.03223305512167273,0.060617860375099475,0.0007840288358223004
726.3,-0.38843191520356574,-0.08256216451386214,9.571892033597576,0.013848579391971962,0.005470600329920114,0.02410757347416158
726.31,0.2390247365057459,-0.07292683791823508,9.956751680075307,0.016235431649030123,-0.0009866215052074033,-0.005306337126384213
726.32,0.049394530314936375,-0.002251726603159447,9.803006820170918,0.015370951477285011,0.023870019344260324,-0.008390565820191747
726.33,0.05841417024401842,-0.11603225365290212,9.843922162840165,-0.015060718464277346,-0.006195406173120517,-0.01731410552721155
726.34,0.14672696885285316,-0.1906543827567863,9.993668037902834,0.019820885027961515,-0.01698825174811491,-0.01039007727128222
726.35,0.055651421548750545,-0.19402638468205283,10.05849200400112,0.00669374599989931,0.04020081011317441,0.030770576770829682
726.36,0.3462048839568355,0.26696724506521663,9.893893386290143,0.010284842185592469,-0.0028500808526435496,0.0733191504993073
726.37,-0.24356466424225479,0.37897845731077245,9.825930013152137,0.01976097405825021,0.0003766979534397408,0.006405497326230925
726.38,0.002331315446868674,0.09841297098495139,9.859509620670694,0.01951121020175069,0.0030339942638311105,0.002613764624301968
726.39,-0.3345046544205287,-0.015435703487101,9.97496815906816,0.006068625108067758,0.009915692421953066,0.012881699229372986
726.4,-0.04305399710365166,0.06273250371899725,10.198550917461581,-0.03454361330600158,0.010129975318111545,0.0016974731820128845
726.41,-0.10902698616341282,0.13561779970602136,9.947498720263935,-0.012393599649699601,0.02480065912507217,-0.019125141582423393
726.42,0.06413717887130013,-0.23020428426040312,9.940609229927244,0.012939865881784664,-4.940824066717195e-05,0.028232021592646664
726.43,-0.06936732598800573,-0.11145574950512062,9.968789988786503,-0.014723241307193255,-0.007307668763959012,-0.007511099496895018
726.44,0.12745971114622384,0.14829761652144663,9.838929284583903,-0.009601602496999576,0.0012840206289209827,0.0024655634771759607
726.45,-0.21460288360610544,0.18557477137023298,10.166332518201788,0.02427006770267884,0.01649674125978565,-0.010052057972257354
726.46,0.04949746666585238,0.04624233361276604,9.54273365855289,-0.00840646685353209,-0.00875695440613224,-0.012607215989887864
726.47,-0.08287867760347495,-0.072073077618392,9.75435617419908,-0.008087984168438494,0.0052793164949586,-0.029875946083992543
726.48,-0.2490455556899217,-0.024568343728591614,9.782173288122188,-0.0041866980599899834,-0.0015536838327208772,0.025136554007802316
726.49,0.1021769396579917,-0.3161157257990878,9.761670089378907,-0.0009776865166909298,0.012923983536145931,-0.0044888552919991696
726.5,0.13640252411681392,0.0012443238822319022,9.683138499793293,-0.03326842965123625,0.002578578237950782,0.02736221543210409
726.51,0.02018079524178699,0.10807893613514163,10.03262126836244,-0.03782871446719922,0.0023717796518997335,-0.001455110729765099
726.52,-0.4010796473290153,0.0928918139790108,10.004397657094394,-0.013275847180455531,-0.02373230621156146,-0.00045360666104339066
726.53,-0.058875602355272505,-0.025131117540880474,9.780121790621347,0.021856028659010672,0.008539826948337959,0.0035268503071783515
726.54,0.2720858189253289,0.23285241861941952,9.765554620862215,0.011116319308754388,-0.005354000878031251,0.020037253703621347
726.55,0.06960622785930091,0.0341739059608331,9.867791669570007,0.02736045962713156,0.005572274862534523,0.009883279791425156
726.56,0.05963112364493566,0.1364983641194499,9.894536492128378,-1.1692013407618766e-05,0.00980332663614896,-0.0025178096412983722
726.57,0.2502590818614777,0.23851495869996828,9.497761354188405,0.0039699597791600675,0.010062345729793367,-0.005984638791512141
726.58,0.08049436951841996,0.061662201310324974,9.643873303105297,0.001638911448410349,0.010817704544992486,-0.0125638847103854
726.59,0.29780243863495404,0.42785119426036133,9.953635745817142,0.03594689741843294,-0.012795846076695832,0.01666272898812651
726.6,0.3296397037381741,-0.15750417582623913,9.660070395754362,0.01880271481791112,-0.011562538910822737,-0.013013409210415782
726.61,0.3436354916424485,-0.23977130324449453,10.072523031906968,-0.014833213042330923,-0.006866154419586603,-0.005522066786169142
726.62,-0.014192865727674158,0.1642832236841525,10.069156685498026,-0.0005193834528845515,-0.004487260443333636,-0.01895851161369769
726.63,0.08639221301014575,-0.041454366105398564,9.82674220809171,0.030265108903604548,0.0012648154712007773,0.02342529096717715
726.64,-0.18852276847635382,0.2569399417632218,10.019091862666789,-0.04495404948554732,-0.03497079478057768,0.010322856400386918
726.65,-0.07878471308894322,-0.001209736903634314,10.063599649079869,0.004878802640806342,0.001296856819154838,0.013977892615262569
726.66,0.24465208204776423,0.19157286667333778,10.004363535918563,0.014681430698616065,0.026248722026811052,-0.005063545719377135
726.67,-0.20159297359076248,0.16952294224434228,9.89669031904087,-0.029014655809012337,0.03932688143438969,-0.023137192621347877
726.68,-0.03406171380942541,-0.14553709488542044,9.8075315426928,-0.011837089806071245,-0.011591089472628005,0.020455475137450635
726.69,-0.2894747587581183,0.13182192094986514,9.517855691657612,0.02931244977552696,0.010139736232325693,0.011675444661958025
726.7,-0.0926856718118819,-0.008457736013512468,9.859900641116633,0.017510511719372533,-0.02935563833995546,-0.022736246997766715
726.71,-0.25141921436546805,-0.03902447252432034,9.858667198271709,-0.03136658354015153,0.00690186848676738,0.013267407522018293
726.72,0.10064767148305921,0.28785969873103406,9.738205445246946,-0.0031458262056623405,-0.027330624055106716,0.008050449825423966
726.73,0.06476353111449037,0.04199106226868233,9.838946497824217,-0.028600121175777597,0.013928063595323522,0.0033607228131988993
726.74,-0.1669891017981828,-0.10944993757856158,10.239976035345745,0.02852806491467324,0.0007609446682507898,0.008095263048932046
726.75,-0.21582435767330094,0.26869456851750906,9.824168921563684,0.0027730704612066543,-0.011310462503186312,-0.024529590770821223
726.76,0.057282726142471777,0.08441626938617273,9.98990061145257,-0.006134607231541099,0.005502071299597368,-0.003064579505655063
726.77,-0.39329087279946146,0.22888340424760065,9.765503509151953,0.02570533004271974,-0.007852944487316205,-0.007884350836495184
726.78,0.20466453957642727,-0.06403281870196545,9.833129406091297,-0.018539934293773402,-0.025082515550236394,0.0024498393553115797
726.79,-0.05839285712865766,-0.09253838993457437,9.805831369461222,-0.04361826375888659,-0.01880846683126258,-0.02241649454723125
726.8,0.1141799107740543,-0.006984236845867048,9.78445730096517,-0.012484009066239875,0.008866300248825374,0.010852390732059925
726.81,-0.12203729991182373,0.008595781611714585,9.749058054428012,-0.003547365391607844,0.002723447572453965,-0.014063985705979255
726.82,-0.09590322728331856,0.18826709360171096,9.778636130304971,0.009831834767452821,0.01314150196883152,0.024985830069350658
726.83,-0.12856489641653443,0.005501770154660751,9.997920200938855,-0.010847398591581027,-0.01649493569464798,-0.012688045958747823
726.84,0.1256963961989134,0.040048223270967465,9.988259108798106,-0.0019567737787893596,-0.015545372929857892,0.00477899880687392
726.85,-0.1502165945309887,-0.00011446215400354614,9.665886446326105,-0.010740504289421972,-0.00920663174595509,-0.016286723513942405
726.86,0.3515867960785874,-0.009348980290322327,9.892297326902538,-0.0017374416720355155,-0.018241322115476476,0.011225795068316549
726.87,0.08165056145928029,-0.5075941974347661,9.56887097700431,0.004147812364779056,0.019628246696625218,-0.004907376256358314
726.88,0.29092820915032147,0.03475050355895235,9.565186434622815,-0.017784872739836248,-0.004936660899909812,-0.00750936519014667
726.89,-0.02080157017086773,0.042334386044699905,10.187741141566,-0.0023078803056820842,-0.007095145780705144,0.010978115468921938
726.9,0.03143699611348817,-0.023085502910099504,10.049307842148798,0.017800721453966502,0.0341775941899823,0.00929448923273945
726.91,0.07722827983397358,-0.19554330449840743,9.91758122881058,-0.030236145393829825,-0.028679814083032912,0.00018367954009493385
726.92,0.212488947031237,-0.13069830060321905,9.625746324479351,0.005606100705798604,-0.010213185424333306,0.01167536298924948
726.93,0.1299108083264803,-0.4710406378371871,9.702388383614606,-0.04394220485628836,-0.0024847237805471975,-0.022276242765822466
726.94,-0.2053863508550342,-0.05984197526013286,9.673630171956505,-0.007972351834498589,-0.011105863783933159,0.0196160756716317
726.95,0.17191968442687483,0.1219919657719535,9.927485534282466,-0.030679297105451375,0.019254794252673037,-0.004943466120911303
726.96,-0.3033493731817637,0.17584965981353987,9.804714156327385,0.015053408961030133,-0.028453369881503196,-0.002284351431741938
726.97,-0.020480443696390675,-0.2782996859097452,9.763068227610356,0.025055173815098843,0.0003324977189968712,0.03208461039263714
726.98,-0.11774508463997767,-0.027565922156640492,9.936547100450756,0.022872263624988502,0.0002015107459544361,-0.013380561269370312
726.99,0.1682431324945407,-0.1746769723261935,9.658858267925911,0.017809043875314547,-0.033286551464731855,0.020634729334589066
727.0,0.03238670248905289,0.2566810040136485,9.72041820269141,-0.0039622321514302915,-0.007994802681067196,0.013761111827516282
727.01,0.13637219702129777,0.10129683770667326,9.409860462798582,-0.01263109287791367,0.018300270641861304,-0.0015508537376107434
727.02,-0.1739619862892335,0.21886759790425925,9.769245607875197,0.005219066076072387,0.006410012609644417,0.029276130058857645
727.03,-0.017751840849491548,-0.11619025775028673,9.772944493001676,0.011356683991478975,-0.00044319491058182923,-0.01016024502800695
727.04,-0.33522596508228597,-0.2735025467840307,9.755209666256109,-0.014338122466753181,-0.0097321912439484,-0.02456529904956612
727.05,-0.09422580541555999,-0.05343251094809123,9.8492418898476,0.011234579715610316,0.03961214789905419,0.017398963119888845
727.06,0.3466454877098323,-0.2397483968240751,9.894799121251724,-0.010495827573784155,-0.0027912307766813716,-0.04418232407693652
727.07,0.0936119115856475,-0.37251766990463303,9.654092668968717,0.012400302637985946,0.007329993955389239,-0.01535367492756239
727.08,-0.11309479944412987,0.0899848974808471,9.834875498978807,-0.00952256333283301,0.003212628938145039,0.016708947567198238
727.09,-0.041999101743827316,-0.007737034487667549,9.581925093596265,-0.014764769409607349,-0.012336671342300052,0.0020649763305238605
727.1,-0.12469684630983087,-0.16760099257556377,9.867772639631404,0.01710026114941724,0.041321722755514795,-0.025427284143736902
727.11,-0.059619042098706374,-0.23068622773031533,9.934082124340396,-0.0008079644144179606,-0.04032669879687738,-0.03582697425934161
727.12,0.12323410279733203,0.04927068877482801,9.612973241185045,-0.0009871734265111125,0.012134750235081785,0.011681585702804483
727.13,0.28631710370525415,0.10760741154958797,10.002647659491128,0.01580626802722689,-0.026468059924632557,0.010610617334844925
727.14,-0.005868001174227054,-0.025336358089402176,9.92608687371118,-0.0036388401662584696,0.03365542344781746,0.014891050425646504
727.15,-0.01649761902091937,-0.03381084929897264,9.575806391012863,0.023713808178930363,-0.0006154320808061212,-0.006901729045186301
727.16,0.16803283494682597,0.2755315317398515,9.95324393265072,-0.006948914140340815,0.0017511145133705744,0.020504385265084593
727.17,0.15556404989391226,-0.06301825806741641,9.67808520473639,0.030191404865238657,-0.018873397293861827,0.005541140526591293
727.18,-0.10117707873508269,-0.150439037751,10.26372343201659,-0.013123742710503523,0.010727223816936856,0.011781225742126585
727.19,0.18721195828583334,0.11018297614033781,9.959998547767999,0.025279577540343642,-0.010578754631326995,-0.04043309452537509
727.2,0.09321874819465502,0.26205096904013414,9.604025400580142,-0.03992328402246118,0.005598334291957136,0.008870213666784603
727.21,-0.014453404631217344,0.23143318058750909,9.679086663573527,-0.03762144481529613,0.001146810550832132,0.045622916900509784
727.22,-0.0644425521789674,-0.032118640218309125,9.74383019582993,-0.0015537756841387757,-0.005166238087127348,0.011172874606629073
727.23,-0.04619819455601052,0.016964592863166778,9.66179796701193,-0.017973597076255204,-0.004999738113471006,0.05386135406020729
727.24,0.10662894378729863,0.09013460058691421,9.830497177301755,-0.03553375261419746,0.015602433033694577,-0.014713308088226696
727.25,-0.3080517049033339,-0.292683574861368,9.82590427196356,0.0031534959925278872,0.025246976951288545,-0.004085103808280975
727.26,0.2357206922896534,0.1949996764134252,9.938548124776743,-0.021396972738985887,0.0023241088955489615,0.0001840602198555906
727.27,-0.14086506890423667,-0.23024066107431995,9.719461211904473,-0.013811785436749307,-0.006202700447183621,0.019325686694117522
727.28,0.1298163313592068,-0.18265292907126573,9.509041230829366,0.018135633267924927,-0.04483748972573323,0.006663873154339454
727.29,-0.225977256452449,0.018924698720679253,9.840628014506482,0.026444828998305244,-0.0015619502511444684,-0.012271166156078076
727.3,0.032302038883581304,0.10479789321621634,9.663937755442296,0.028641061085769293,-0.026630714553672736,-0.0009997323340703759
727.31,0.18333831369157108,-0.196217224409995,9.716804287424972,0.00952628218004116,0.021969226687842104,0.03353598546451975
727.32,0.15706352150194666,0.23732999635511065,9.90975251265653,0.018302653306238512,0.0025862335552034508,0.029941652624093915
727.33,-0.03916758276274393,-0.14507500346570867,9.81572209055213,-0.005468801520522814,0.03932764023658579,-0.0021008158154011067
727.34,0.13443938612513853,-0.06886211572877911,9.783379028718173,-0.026033405106349175,0.008996900657688517,0.019864221840540038
727.35,-0.12022179558964893,-0.07673639960141168,9.789748384991432,0.02245018395506576,0.0033713476785228137,0.017390749230458757
727.36,-0.03189624798934998,-0.2345636426249324,10.26253375812505,0.0027813668842782417,0.049638322746069205,0.02351992951682491
727.37,0.07145716380024403,-0.04578046684756021,9.757942824703466,-0.03694974278154766,0.0019682170284562,0.006981202497733034
727.38,0.0335786471481108,0.10911734942137273,10.026873284472504,0.0026715195265423143,-0.03133550376716258,0.021312406482228687
727.39,-0.2898216875840681,-0.0006833662729006054,9.76707281146919,0.004134587841686253,-0.000657442491716434,-0.0074820228630261216
727.4,-0.13878966806270457,0.2702783189274747,9.653298794479827,0.005488374535181065,0.009624897767838087,0.008936075808475233
727.41,0.04101554220137237,0.24299363062268767,9.573166327559736,-0.007926185873208232,-0.014047855284785188,0.007082477872597066
727.42,-0.031762713636695854,-0.1868361395703145,9.884535927673806,0.006657304601789827,0.015077705794891776,0.030633218963503163
727.43,0.15640236700585244,-0.046136307318046174,9.608573071516679,-0.004071929514848369,0.0113842632148906,0.006169745252882767
727.44,0.1664491777899314,0.11697615705927947,9.983440580834637,0.01106760898470245,-0.015684446460728297,-0.0017541360925784554
727.45,-0.36715112983104004,0.27324123188822524,9.62728073279302,0.003563341865998447,-0.009836834518375413,-0.016898392654342825
727.46,0.16766923980433335,0.11179933733061968,9.801892259371305,-0.019664264546793896,0.001589990200618793,0.000546582920258473
727.47,-0.2563884447888552,-0.25266806112721757,9.913932268338728,-0.009242764575991044,0.026044210302353994,-0.017263516147609466
727.48,0.025544561423141172,0.29223389480648465,9.68756642863294,-0.02187837129272801,0.019570334194864827,-0.01634885391203531
727.49,-0.11836517793298507,0.0931173391543988,9.7708175074885,0.013595268976104517,0.022661203065778058,0.005041239182782008
727.5,-0.078130611942409,0.019016304462067278,9.700257432076254,-0.0012433302588725206,-0.004246659218668769,0.034325490715569895
727.51,-0.06984642218446735,0.15734528552512383,9.7899516422672,-0.008518326940195513,0.010661272591013004,-0.005678453516991575
727.52,0.011916893044655921,-0.36224605744154426,10.189608914404092,0.019015894644894914,0.004465678229207295,0.00273026874601264
727.53,-0.14641495402314794,-0.2859767002924664,9.705183618051032,0.037965311876632046,0.02161836252456531,-0.0005701318291725492
727.54,-0.013690561013757199,0.15748150161580132,10.05619338091609,0.03619304931299019,-0.024532813502400004,-0.014268548832687276
727.55,0.1137943249464178,-0.0027365895132957126,9.633344593603505,-0.029650589076272334,0.006830260623036614,-0.028361006013909115
727.56,0.33709040992552947,-0.07343263993612736,9.525562965978235,-0.012788604547824356,0.014180622422798429,-0.015575237375664592
727.57,-0.1900361641600726,0.15315145547500902,9.99221066770072,-0.0077918911023964225,0.017823797127360156,0.014242390675982859
727.58,0.09237325334954165,-0.029024488636592877,9.756761365051634,-0.019964587000675875,-0.019117448234886106,-0.017901409766117392
727.59,-0.094070606343996,-0.04710557712252423,9.556088478888206,-0.03176820235018907,0.004604120891865481,-0.005595316965167071
727.6,0.03633917242621251,0.04911243766915093,9.383550247404207,0.01412294319126672,-0.03950793788604018,0.01538163102476213
727.61,-0.0581266361213472,0.15030221509706732,9.80371668284385,-0.008534813752886788,-0.03853901966652214,0.029888821627555847
727.62,-0.0958506017264984,0.348908738670961,9.849302795833974,0.017719174917293457,0.0010582559406362036,-0.04019342454838037
727.63,-0.059673859933402816,-0.1315249907572878,9.794230336209132,0.0024741640641094487,-0.022098135563617054,-0.01460090010072631
727.64,-0.17707370805100575,-0.07651547047102032,9.839047955264526,0.006349143579960383,-0.014550677849569593,-0.010911380779278768
727.65,0.04726394807089233,0.15193796386773967,9.833746028965562,0.0007566941170951576,-0.00174325996980873,-0.009373147491722758
727.66,-0.22152423269929325,-0.20018102938938456,9.754739783825359,-0.021174560086776487,-0.008294730252827018,-0.024470753574715735
727.67,-0.2608511209273328,-0.2640536088076807,9.792600387949063,0.02837872340859308,-0.006362606361787248,0.012507088442468025
727.68,0.034680795003726686,0.35881780699568144,9.730029509317047,-0.01276457293775889,-0.011765466858695957,0.021765571579813535
727.69,0.08018303782140423,0.06654145843112966,9.91458990729141,-0.0035792008744703666,-0.008727025553204678,0.008884028125920516
727.7,-0.027026136517956146,0.005552795285162824,10.105518218806033,-0.011192781065216298,-0.039555109124447985,-0.019760962568787316
727.71,-0.053984760265773424,0.02365307106635185,9.955439075314382,-0.014989270900351353,-0.018890668791579992,0.004364418305300421
727.72,-0.1416654187135011,-0.10875357814912856,9.635061275951516,0.026076038599034422,-0.006509975758476068,0.01629125771353706
727.73,0.09951475826261767,0.15842358283642463,9.84755869507985,-0.0003940255655211861,-0.007795161654052955,0.013770043877550974
727.74,0.3554861977528575,-0.16471811706336495,9.697758696381909,-0.004725349517544391,0.016005429265782915,-0.02476925676172539
727.75,0.3206786108606704,0.011239382171295047,9.95343057258519,0.013038809800850546,0.005872096860422762,0.03430048423962786
727.76,0.18925149688704318,-0.007704007816239253,9.703925918943634,0.0229506182805799,0.004419355291652697,-0.013916822794641674
727.77,0.20149374528186817,0.05115025115073261,9.878243157905379,0.011919088494626287,0.027533001778476642,-0.013175419657873154
727.78,-0.2983070784522529,-0.040819626746153026,9.833974791485671,-0.0012028350302589795,0.005563627472499322,-0.015440815417721063
727.79,0.2818511127111189,0.17165838438060835,10.00263148968909,0.023973688791344698,-0.03681061701513607,0.004374755947405428
727.8,0.0410248756017002,-0.3592693811815332,9.815330575016242,-0.002699270308001192,-0.04072895806644968,0.006146159571308546
727.81,0.26557184700414643,-0.19371101766119808,9.846308380854092,0.011138396738954965,-0.008592709485445757,-0.0015612524017401509
727.82,-0.10338963351277634,0.06802264861164324,9.968744806223539,-0.02299830742208214,0.006134236110458923,-0.013814915224048022
727.83,-0.07608012508042437,-0.029857634434999468,9.797219106217263,0.006335960011259199,0.04470484473027445,0.0006397439424065581
727.84,-0.34563785531576274,0.1288814546508015,9.706349092589457,-0.019456231704007967,0.023410200645591794,0.01955704750584737
727.85,-0.06435484052935982,0.0501004283089487,9.709110840503856,-0.00800613879359652,0.0027587537421206528,-0.013004236699166788
727.86,-0.041486611027708245,-0.05624203372802888,9.59203679279688,0.017847915922197893,-0.010839116732634203,-0.001985696476888628
727.87,-0.10073074053677049,-0.08705984227146214,10.10052528265246,-0.005182191545250911,0.0005277708923049382,-0.01776914465557427
727.88,-0.2368055337400076,0.107587398031004,9.326196062357283,-0.015994168123036712,-0.013113294614815531,-0.01928678845071742
727.89,-0.2775602651215704,0.07939232694125939,9.391020663747236,0.03505759084020604,-0.01883128240754255,-0.0029187664604739304
727.9,0.01590695194828035,-0.2904417026168527,9.491813036006278,-0.005663858860522623,-0.009306448228115272,0.0077829819400843095
727.91,-0.20643448930619104,-0.05947249059776831,9.80370228362538,-0.0031655269474520145,0.0063139531743454545,0.01787888655855955
727.92,0.04026709647757675,-0.0592468959933251,9.895512202597052,0.02264268907192283,0.015947214748217673,-0.001010156578481773
727.93,-0.1867370229957404,0.044635528459843254,9.51405964910663,-0.029267337947133713,0.014019692392522997,-9.177150929032727e-06
727.94,-0.12824074901184182,0.10732444354443281,9.899112509375863,-0.009070162024553897,0.002598097947371277,-0.014376114676306458
727.95,0.08963219492148951,-0.0033924306261042263,9.857425330023599,-0.0680992657038552,0.003197594739596323,0.01961225564382453
727.96,0.20040037677367567,-0.026743120808619215,10.02229883528988,0.010416610561531097,0.011032285822582737,-0.008296623394524428
727.97,-0.2687778433531142,0.21101563640810425,10.003038128737982,0.0024197223932749634,-0.012668183386721902,0.027655875354178384
727.98,0.060426613113019556,0.10244010824180314,9.649305552716607,0.024483754115326255,-0.013725290086970703,-0.023093054295239446
727.99,0.42324853770474025,-0.28978010004594534,10.26619965535878,0.04446619073889479,-0.02921008656716185,0.029557217496591792
728.0,-0.04368742396558923,-0.0010979157971679411,9.853540099188765,0.01310860063358159,0.03699931472024486,0.006789441120656992
728.01,-0.20721944308394302,-0.08220783300108325,9.580991371024112,0.002273284078114773,-2.8000684167372464e-05,0.001102478107344973
728.02,0.2658935453699947,-0.1761114520548565,9.640902187072017,-0.008769517232969598,0.021410539376447622,0.0071196433326749875
728.03,0.047664158018960595,0.04527406368823719,9.870343206097598,0.03913819952730514,-0.025618056835909023,-0.0037264581876588895
728.04,-0.022736839915822475,-0.07190637798860036,9.85579675248192,-0.016658026941052024,0.005663650538791343,0.026886594739328622
728.05,0.09469595523254577,-0.082469658839359,9.795585140276074,-0.02111460817521264,0.012768960172672369,-0.021790311036114483
728.06,-0.20364897786358074,0.13057141763721708,9.795752534601133,-0.004994337918207556,0.013488439396708251,-0.018515115414126697
728.07,-0.02162302089711397,-0.12077281049841268,9.88525478815679,-0.005010760377055984,0.015457447116708344,0.011543288474851946
728.08,-0.08908838780498655,0.2597075242849804,9.548670165707444,0.02870449815616455,0.014437092134664877,0.027646482499376707
728.09,0.04519602267569915,-0.08025789320184842,10.011579228432398,-0.001556147129530635,-0.014152036868271076,0.0021879988728545374
728.1,0.16793759131838173,0.04393203542267365,9.384606456165262,-0.03147135819636625,0.01240067727648093,0.018887511390024838
728.11,0.18659845456541,-0.010189557759694365,9.642159057350302,-0.007516995957973685,-0.007585641996287104,-0.005119952356547274
728.12,0.12283609686884803,-0.14269306137998855,9.854529767118137,-0.007313181995845361,0.010171642908172145,0.00644144348311358
728.13,0.12219078678030709,0.34538339235352156,9.743951011697753,0.0017590023905100021,0.005436553821516702,-0.003940842994579745
728.14,0.06165553663375858,-0.14656528832800828,9.948073960333822,-0.0104566570329038,-0.002964428586321282,0.020236274105617666
728.15,0.19034690928381784,0.09529133664125111,9.683014016686233,0.0017626517803355794,-0.006465466084488599,-0.004622594634327972
728.16,-0.11985321853976039,-0.16214754515666682,9.994123506562708,0.022070457063668412,0.038238571524782224,0.028465286317771548
728.17,0.012612788379317732,-0.02467326248103884,9.684683291624513,0.014263741144944098,0.007933714120010392,-0.0007221154075935379
728.18,-0.3849735506926451,-0.03763105547018798,9.734403584885364,-0.0037282324932488634,0.01040306545420239,0.02338531920003107
728.19,-0.030923255306448624,0.12769688087705097,9.721769933727744,0.04217710594808701,-0.015462824217292767,-0.015274235753542248
728.2,-0.083322432980443,-0.009523058678659312,9.737957604045889,0.03690780147559788,0.04604536834715247,0.011596573445418002
728.21,0.11224061382262307,0.08509531311561654,9.617791328454864,0.005600718199624573,-0.03457049079561809,-0.013757276051575515
728.22,-0.0794990449045479,-0.24456267754137456,9.593450289954788,0.023981592430170322,-2.895803466456293e-05,0.014956087947226833
728.23,0.048353421814387516,0.11919573904384105,9.818125619497135,0.01653761722313552,-0.012609279183229547,0.006423438292842621
728.24,0.09272149139635671,0.5351167730642836,9.714202464813468,-0.019653187601741215,-0.003521265222784119,0.008902535081458728
728.25,-0.09348133861984045,-0.12978058744981338,9.83582688106136,0.01688455331286527,0.03377223659450292,0.014317954387708103
728.26,0.1265830494419515,-0.19172496756171423,9.741870749893861,-0.017575858708336483,-0.01726613184063916,-0.005736450552563041
728.27,0.25787144729417166,-0.27968170272120846,9.649538578547425,-0.02112237632871078,0.01873718697332103,0.005938563270743349
728.28,-0.08964177529161839,0.0967891748472902,9.66442465369733,0.02565809533451449,0.00883852671403467,-0.007394046959947066
728.29,0.1429962345511716,0.13618198456425065,9.694279117439098,-0.024212111412948857,0.01597913575712071,0.011528023446993494
728.3,0.09846747082694146,-0.05122780975672421,9.881288748964515,0.022279211263614155,-0.028928799583486483,0.0036534875517708174
728.31,-0.06110861155233957,-0.036208615431403454,9.898142761627973,-0.009739495222511708,-0.005561555490041982,0.020759395577475102
728.32,-0.19745102344020396,-0.009711261052835415,9.914232333626183,-0.009267448680231232,-0.007630461407188682,-0.006571059202639277
728.33,-0.004336184444210248,-0.11314369153719794,9.85319780458666,0.02900324161178947,0.019679746015625898,-0.0028475083641072763
728.34,-0.08277145973629539,-0.28481471762213956,9.799990443439098,0.0022973426784362503,-0.0028638193652144603,-0.005613646622514064
728.35,-0.0493546968829892,0.08893854590912567,9.791958278321882,-0.014599718619391047,0.0312859825851785,0.00400729151046966
728.36,-0.058777672097964896,-0.18075852504441506,10.075011604289635,-0.003165427321309858,-0.02357422063562881,0.0031848680340598808
728.37,-0.21851490197320048,-0.11898226387253223,9.747669712756995,0.027130618013354438,-0.004464956503026748,-0.016041451762889878
728.38,-0.262332268975419,-0.4720399709988587,9.583247103038865,-0.014507196035751211,0.011722294498381717,-0.02666360903948844
728.39,-0.02079073658990816,0.03451660523320407,9.70894730882405,-0.0260143575039106,-0.021370914682427137,-0.000698040139786468
728.4,0.051477465903326754,0.3383780552032316,9.899764218586016,0.01710344046776918,0.01910704750430524,0.02503956898726746
728.41,0.19473950661429787,0.30091448239003615,9.867743858844126,-0.0028310321933310806,-0.03861093095037969,0.046049683642974036
728.42,0.0024698222263691183,-0.09556482428456019,9.944975449365668,0.019026045304076297,-0.021113039981344017,0.009973900512846922
728.43,-0.009705407457175293,-0.06920195341567827,9.895450188309436,0.0196237493649703,-0.01691306854935538,0.014357293416926166
728.44,-0.4447173642154949,0.03354821011369218,9.934625909162706,0.01731050740362391,-0.005329064152418234,-0.011988550189889749
728.45,0.14579146710733037,0.20151507591603227,9.782034526630593,-0.003542111211371719,0.018821473161452325,-0.012191250107344046
728.46,-0.031838771072735375,-0.2222101913184117,9.80703368624262,-0.007560241521207082,-0.024382751163522582,0.015369082330575452
728.47,-0.1056771292485311,0.19084035359373808,9.81240018787998,-0.01584225510989072,0.02555656597680084,0.00947079418091419
728.48,0.2629358139500953,0.06572379963221867,9.601093184930585,-0.006743287426306433,0.0173314123820136,-0.009595349370085191
728.49,0.11913788319314016,0.10024056289279573,10.082863020915195,0.011558181642344657,-0.036278046066736284,0.010695326992093756
728.5,-0.20233343434154388,0.09016660908864965,9.809306272158791,-0.008542359330423095,0.01990618432845139,-0.04012840615134854
728.51,-0.2946857791958613,0.2466464034059669,9.697250862814276,-0.011391159610894217,-0.02008827464847209,-0.018679614838036273
728.52,-0.34140253438595647,-0.21915229743128717,9.5800679984394,0.017905257025428722,-0.020788865889868544,-0.017844341810788335
728.53,0.11410821217625808,-0.08157690632022654,9.959631843255735,-0.015768712393985022,-0.0187975517270304,0.018419443293517534
728.54,0.06424374020794513,-0.078512986851388,9.599819477642702,0.011737584643170564,0.007300824762276037,0.015697902795399753
728.55,0.12685361751908833,0.1339656537855272,9.68598194187699,0.00017371176152588467,0.006765907140304067,-0.0015500086356170068
728.56,0.2996417870561302,0.15835221730073334,9.473645109479932,-0.019167521169374452,-0.0014745112847222859,-0.0036989686302131113
728.57,0.283415346259041,-0.1573270318202927,9.712805554315672,-0.02283130063011167,0.04439222942811685,0.005158887366343364
728.58,0.19110894850035118,-0.04363651062579064,9.55409420655615,-0.030668674977767152,-0.03532486637079967,-0.0023311234106930235
728.59,0.04706556806506596,0.060651228948802594,9.627017938905452,0.008119968033303579,0.007111487219803845,0.01209163662428448
728.6,0.006755234256540588,-0.11632564695101227,10.05208579991427,-0.0011990836790134677,-0.01143190348963561,-0.011370500269391008
728.61,0.17463697773545145,-0.08210866167344598,9.797552972511902,0.034087171375033566,0.03992712093010524,-0.0014215033253600934
728.62,-0.07522092046546439,0.3995826515676972,9.542188600225856,-0.015578750295857232,-0.05531794792741421,-0.01924128351674215
728.63,0.1345494059801451,0.3136823682684192,9.718551337504769,0.021744832301411953,-0.005130949275036833,-0.0007047180835029245
728.64,-0.09565678250478303,0.05636676935795941,9.939232826597927,-0.00460506028726798,0.02673185310761851,0.0074048594754509735
728.65,-0.12042991577997385,-0.3416120280419505,9.629194555907853,-0.009042933047974409,0.006245783453577334,0.020081975102811796
728.66,-0.11088211669289176,-0.14020367233947673,9.797816719406198,-0.02599895839918092,0.042482275753826605,-0.01348722080013086
728.67,0.13644063651115484,0.2508763812872333,10.171358790512661,-0.0319895961279488,-0.0076228166402499365,-0.020529798637298445
728.68,0.10206900681385733,-0.04380240347928473,9.948481356139535,-0.0018828785486087322,-0.023554615420991253,-0.02112016257565212
728.69,-0.10818340008830847,-0.1662358721870736,9.964868092536307,-0.02636717716183503,0.005199343149983071,-0.012519940694178363
728.7,-0.053820703049467664,0.005477724415551744,9.633051890330522,0.009956706673770691,0.004004974481429814,-0.002566908170600991
728.71,-0.057308300830805174,-0.2161847268148542,9.494448250427732,0.005684609184008781,0.023241832855215337,0.009317070179341224
728.72,0.1999520239532232,0.015648153897272428,9.373870301028736,-0.015343741626519346,0.01916198448423152,-0.007917119530876857
728.73,0.1381447311558007,-0.3415539923426001,9.643597348291262,-0.003848065404496394,0.0010986004589308763,-0.009847454668063594
728.74,0.1807757660689085,-0.32017764763434353,9.891173903659773,0.03140678098910575,0.031466370675649016,-0.02943326204110549
728.75,-0.2302765623433964,0.030763469634233733,9.726510279552018,0.005407851809085831,-0.008969425195249264,0.02824563688764471
728.76,-0.0382869978696788,-0.2685269143329419,9.464891227730744,-0.017072750341709502,-0.007592574247864653,0.01801677828489428
728.77,-0.3070655581792246,0.19485584052121888,9.601622042398075,-0.0006419202471218269,0.023051076467450932,0.009645246691833548
728.78,-0.1516998883786016,0.08417235855155658,9.72144205049993,0.02524980493097051,-0.003309008315602313,0.027484892707760056
728.79,-0.14277514095604488,-0.18534542555979602,9.884727919068034,0.0007018114232036523,-0.014274389465813256,0.018347863065036243
728.8,0.014243109975230374,0.032926206388235436,10.195612003462653,-0.004205055731615507,-0.025389719970494155,-0.005583338168356735
728.81,0.36902423948007285,-0.10868360817227407,9.729325131661959,-0.0026283289148762074,-0.02414824416753933,-0.027172578648356507
728.82,0.11841547537780865,-0.06188607120582055,9.95857768144715,0.008304622023692945,-0.002413059182070019,0.014418684566613424
728.83,0.28848532182953035,-0.049343835528192256,10.106021022546647,-0.025153142896834617,0.025408803043220664,0.0323902819618406
728.84,0.2288758226918104,-0.23095677109833768,10.172381976523653,0.004642804277477766,0.013998473468282627,0.027555894251476632
728.85,0.25343415602288893,-0.032928078977387275,9.950890002681657,-0.028595957111462886,0.01475779978784581,0.028725606814596013
728.86,0.24905718685669337,-0.00248052938980462,9.473276589941937,0.03000182309706904,-0.023633051805870085,-0.013962049364586393
728.87,-0.08653163276913864,0.060064092382565056,9.956969953116703,0.01862666148539473,0.022828508848686695,0.05799632911407715
728.88,-0.07850470548495765,-0.07820993888853493,9.676831582250804,-0.006482210683281971,-0.03253881587848706,-0.015665027235743145
728.89,-0.01346495129525836,0.2170711823158244,10.039800495828043,-0.023917293947698207,-0.020684992600917267,0.007651497987356701
728.9,-0.05150508015387871,-0.28351000557365746,9.852359000568029,-0.006410424988890776,-7.935764764743513e-05,0.02941872646930984
728.91,0.04208318670316168,0.14393064958378574,10.033054152124796,-0.003109592060281575,0.0035723603587010854,-0.04544216614377563
728.92,0.05468954446416932,0.07862425198050692,9.394652310068594,-0.008939997781545386,0.0016169064445363882,0.021387396033729498
728.93,-0.0640004038572316,0.19484443519801717,9.724507741852666,-0.0218544946194298,0.008432397713682495,0.011844398401516841
728.94,-0.047904172285727464,0.13987417307970643,9.594201596141874,0.021154163599329756,0.042036032715244885,-0.0008649126130862377
728.95,0.05290682320390627,0.06669506974105142,9.745969547776449,0.0024279616421413407,-0.0007698530968477498,-0.03574622732614389
728.96,0.2727340503821435,0.05030412758247855,9.999350897746515,-0.01493271988091636,0.003987466921616045,0.021712872138455127
728.97,0.10520942186582714,0.13264663454190098,9.964738482730596,0.0015574929690992455,-0.0005242642160158685,0.0019281941695111658
728.98,-0.02200414906156928,0.042068409440005824,9.82252612444188,0.00658946213698169,-0.010379108446253116,0.010211124804211342
728.99,-0.06795845503040666,0.10028280520955404,9.953860689504744,-0.0113748340431448,0.022853969175305862,-0.04343497623084235
729.0,0.25019001348847947,0.1459416464747861,10.028387115341555,0.0023570854514071184,0.004486722579879476,0.010716555868291316
729.01,-0.23597210983119798,-0.16468253228870983,9.78295669908753,-0.0005094464389334341,-0.0006644919544199175,0.05261524100271015
729.02,0.01695404685962354,0.2669771101358326,9.910374457083522,0.041156906255431586,0.026557479790970746,0.0066989468590691326
729.03,-0.2443200435883992,-0.12555417765410126,9.667606508093874,0.03355998495710671,-0.010239125229502634,-0.026566631220118292
729.04,-0.026519028856261378,-0.006468087124233944,9.883705501758756,0.030070394755888016,-0.012544944802308597,-0.02172408145180082
729.05,0.05967574925388153,-0.1839249128474359,10.02357842898569,0.011004660982481932,0.02212705407331987,0.07011447674593652
729.06,-0.05562372023179453,0.0660813735200757,10.010100733653553,0.01949335931980943,0.020178113101298363,-0.0043365517253568945
729.07,0.09305897542733277,-0.08145987790065712,10.326071421267399,-0.01288418011216217,-0.01725835639206346,0.04585407061985401
729.08,0.23551350772783064,-0.0030604883480306218,9.899724696157085,0.020867479127753347,0.011683934635141443,0.0177359083845234
729.09,0.0834804103893236,-0.14525644744661395,9.668039927779642,0.027534128926828744,0.03830658857671927,-0.006762575910511973
729.1,0.06420345537054031,-0.06525992529988346,9.532704207133962,0.011956852353699476,0.000777587082890382,-0.007831017986800519
729.11,0.21763427143755945,0.06042986423987531,9.795507461468665,0.020795422522621752,-0.04950213906834873,0.014268855606266883
729.12,-0.4869865078433293,-0.14361954310464295,9.816619089493376,-0.0027639383472715705,-0.014187917412521994,-0.014230621490697282
729.13,0.11154750644287355,-0.26726878284930516,10.083827002388853,0.022616856686782722,-0.019214191995912955,-0.009939741195118975
729.14,-0.13915942324199357,0.10085088435954187,9.946361986579607,-0.020213107004724114,-0.02916082992919605,-0.00020592138615571021
729.15,-0.10347700553257048,0.13070075707695225,9.980510630721282,-0.030533617051026214,0.014315655454214057,-0.018966187563667015
729.16,0.06661617760223548,-0.10505047079133868,10.041743280622741,-0.022486915825493503,-0.02360983655757987,0.0019119151719392033
729.17,0.06840182704616028,0.1040092071669803,9.624613559199299,0.019753124925456916,-0.020611544806835164,0.0026375285485469332
729.18,0.0674049845065696,-0.11855928090996773,9.83918057063736,-0.04381686306419467,-0.002725689583546775,-0.021767529850834813
729.19,-0.04461076540657407,-0.028260689379021486,9.710436166530718,0.012145814875753676,-0.019359590077575144,-0.0033932833876083577
729.2,-0.026753613309150038,0.13110809733842368,9.579485031489995,-0.015365909273487875,-0.01576543115657085,-0.011953704874384345
729.21,-0.08426797574443125,-0.17257882214784243,10.059607298738769,-0.019346497287277564,0.011099201995558482,-0.008985583666737292
729.22,0.14953777733552975,0.0355904205827464,10.022232381893405,-0.011831161901027034,0.011691186151282796,-0.008294276560065332
729.23,0.006667054393566313,0.35765774828784946,9.775929447300472,0.011387441056785219,-0.0015905442471035997,-0.014130200752926625
729.24,-0.25901398456487335,0.036112768383591905,9.588167797051504,-0.006797479786453443,0.0063800571803797924,0.0099269281079373
729.25,-0.22813516554972352,-0.3185953575261676,9.735015108156507,0.019227980617102812,-0.03484363588751699,0.00013694601949014955
729.26,0.14627180724234917,0.13789453266242804,9.880839563081752,-0.036835020355680384,0.00026777456733843917,0.024039392607798426
729.27,0.05670743958239781,0.018309136984545154,9.918212069498153,0.009510030161379485,0.022192328562466893,0.004551204346887521
729.28,-0.12941220570283835,0.054432476511098206,9.977561411603393,-0.007963559994728836,-0.0035091137684874095,0.006079904135014753
729.29,0.03653828567632082,-0.34438125477126236,9.472494193584282,0.031498814029501575,0.014913653503101117,-0.02209711597267682
729.3,-0.16253078726576448,-0.052692061719782655,10.337891173529314,0.013613379337397842,0.015528848608505428,0.011004994470543084
729.31,-0.28792012604616307,0.041099629713188354,10.037540270715816,-0.012663302946348024,-0.021749698096568286,0.011040848523696469
729.32,0.15550909763137605,-0.14648606623838023,9.97547446466215,-0.005375430590454119,0.028453526677467686,0.0034405911015593514
729.33,0.010358600165557114,-0.12157327001683352,9.713719215545394,0.025835151697375883,0.008854709627072955,0.0068006686627666195
729.34,0.12273488230952484,0.3239193897388896,9.707668523860857,0.004750579659543879,0.0006004077989454821,0.008111412423868692
729.35,-0.00043409907918686233,0.04377687330754861,9.879535998318966,-0.01524586109042176,-0.020993139841413423,-0.010095005736241398
729.36,-0.015604204781676031,0.28842517552998614,9.995143933814827,0.00511076491480766,-0.011518897915666312,-0.026595056578753287
729.37,0.10481285922302545,-0.3180630964921763,9.548455097011322,0.049499001435647096,-0.03019887872960645,0.03473582937893404
729.38,0.020238964696401036,-0.019742006049496073,9.704941262061181,-0.016715251222184067,-0.010617715354736273,0.051244861946125
729.39,-0.06118177406893612,-0.13686035932850013,10.184610095031308,-0.021399583274424656,0.02136383255043273,0.019757073194723345
729.4,-0.19930705638331997,-0.17652238867759773,9.972165863008076,-0.018573195557656772,0.027432750074312555,0.00566322279932446
729.41,-0.0939761350050493,0.07267549300770997,9.860504407061308,-0.007917503044480642,-0.03215749750883319,0.02925275175789587
729.42,0.19779310305732523,0.20164302625703995,10.131957816298092,0.02578184680079423,-0.01854787431599824,-0.0027200516448159465
729.43,-0.12639694728823037,-0.13616699053720677,9.634037837439708,0.013139192987614423,0.04724389894991391,-0.014750543892280588
729.44,0.16599479052385,-0.3680514882616588,9.70137090837779,0.03619502479637325,-0.011324570663464175,0.0018126539453312686
729.45,-0.08226954006123817,-0.058833921931298994,9.602276276406498,0.007891337014975361,0.008479382429957273,0.019620700745652093
729.46,0.4045466974426346,-0.07870458212378202,9.655425191279939,-0.060456949255389254,0.0034487362175515705,-0.007175678464230277
729.47,-0.20085187907390464,-0.12880726029838782,9.707489639129232,0.0018619534791322525,-0.009445604177821351,0.030634492481278003
729.48,-0.20887314308095148,0.1797526608760971,9.744616666992247,-0.002886127100435147,-0.0022590669032887495,0.012512829451845562
729.49,-0.2732678720375881,0.4764845303226915,9.812189689102146,-0.021677882823212043,0.003515763540778886,-0.01715505814133992
729.5,0.08742975174914544,-0.03702653539504768,9.45965348358895,0.018089883480529294,0.049000299704370795,-0.0323794722674259
729.51,0.18176741666909063,-0.010661830781001434,9.920079175872292,-0.008506419594937973,0.03018487735947321,-0.0070879919922180535
729.52,-0.3125106309457838,-0.015411239940685974,9.501111590928579,0.003572884988509397,0.010559403350664149,-0.013707502782308945
729.53,0.17557491889344068,-0.15426933895145548,9.681381563629296,0.03055120567827491,0.02274731224810543,-0.005013181866442506
729.54,-0.05123538332561464,-0.20295184321980872,9.791812716193178,0.006312760146175586,0.001490747531505763,-0.00884196505477019
729.55,0.017474322755295726,0.1792298546070168,9.876051001133723,-0.022346015198314386,0.024856470281212437,-0.00259222558405299
729.56,0.1681970892403116,-0.21891930420302705,9.945217572902106,-0.017400137131610136,0.04136831145437818,-0.008149919118293502
729.57,-0.09349041878703238,0.0154258427695069,9.609091303909365,-0.020118146076024843,0.001157957888950391,-0.009968409874773959
729.58,-0.028595270747572923,-0.3731905949906022,9.717137242957646,-0.00837565999848872,-0.006312817053963817,0.002404487639987061
729.59,0.0418493465320308,-0.01495736653897059,9.866122598953408,0.010149036268586382,0.013923888111535205,-0.006547510951238115
729.6,0.04551455617362233,-0.07850981131083612,9.752939214440561,-0.016632368628804857,-0.008953758660692455,-0.003569964157759417
729.61,-0.2766641233074845,0.04523199770536681,9.68760431085851,-0.012260298374047643,-0.03324868780706225,-0.02876395644765371
729.62,-0.09269552119734538,-0.009605365194176325,9.726737982206185,0.0455424270988795,-0.009441344721862087,-0.010160090697573683
729.63,-0.1469945324880028,0.0040297192768775116,9.835959875865619,-0.02937264411290187,-0.009300358055861829,0.024628658028199187
729.64,0.16799448667741104,0.00910615794654,9.607165577654577,-0.0024140264173628722,-0.04319570280271013,0.001731881346836004
729.65,-0.13679845692314077,-0.16526417610797606,9.87796393483679,-0.014010611965360568,-0.008861032884154992,0.006102731087858707
729.66,-0.10379856330781792,0.024402409551693628,10.008512099626563,0.017399772901789408,0.007567734762499405,-0.030470052499544965
729.67,0.1124180991463725,0.019788702168130338,9.95764323000066,-0.024046749785908185,0.00296354205195764,0.031842230806727705
729.68,-0.28118981718745156,0.05998512594573254,9.866550224616386,-0.00225519990216582,-0.004592806531160702,-0.032743100224914314
729.69,-0.16692664780868047,0.2108703408036451,9.937328979507411,-0.047571689824813454,-0.03701616597083568,0.01877227044692086
729.7,-0.1026860723786112,-0.18451008203249009,10.10250316816251,-0.05912871091687957,0.010593759914112223,0.05373221011503886
729.71,0.006282039086076829,0.2589951797870402,9.993009937529559,0.0347465368882048,0.01573389496523925,-0.017846156342041803
729.72,0.2505238328949562,-0.11267345034156478,9.88512261015832,-0.009011881749798119,0.003840426002504767,-0.009975474412356659
729.73,-0.026808231073218475,0.3243329159232207,9.769544818580536,-0.003193651558032419,0.011648379819152432,-0.023112254734307867
729.74,0.1418097090400484,-0.15264788110542044,9.929415897686695,-0.03223836648242022,-0.009861521600564608,-0.016829785620632406
729.75,-0.013402981442953188,0.07642019265294546,9.789433730714833,0.033902668023173474,-0.0064813874503186234,0.000367462170754066
729.76,-0.06024799581120183,-0.16243009451038878,9.975011829581904,0.020981100246717017,-0.014649320764496723,-0.015502201521920582
729.77,-0.17451525475843455,-0.21488747128016397,10.029168970677617,0.03723416424507794,-0.01322999108726123,-0.0019059947729351443
729.78,-0.12586237492207097,-0.1122179650256008,9.739880950482991,0.017097805744914207,-0.02402374849506434,0.015708968189978717
729.79,0.07250987677579587,-0.018740328379272524,9.613510090646185,0.011307398765540605,-0.020964541422255907,0.007730453981554138
729.8,-0.04026322979646594,0.21589371172140534,10.323401235734222,-0.017490080751955444,-0.01656276044660191,-0.007591754872061568
729.81,-0.03888013119399219,0.031643824258436454,9.754780474081254,-0.003357172267816641,-0.0011850159427157158,0.010081275914661368
729.82,0.03300736010198895,0.3349652607052112,9.455891284650535,-0.004997926834934636,0.014646486823985947,0.012210934826431262
729.83,-0.18411113070429685,-0.1534134750684633,9.40361938385138,-0.0009815299131055253,-0.03167414795092979,-0.02506735691851824
729.84,-0.08866893306537212,-0.10078234127622931,9.915911504243127,0.006042794159297603,0.025795847825822078,0.0033941297046891647
729.85,-0.30383490107810174,0.11665810651216277,9.774553921341951,0.004931458527743022,-0.015620588520167993,0.0003373339021806499
729.86,-0.08401660818359977,0.2444591134825327,9.817763693668331,0.024655660874400676,-0.020719465984872468,0.011491408532487693
729.87,0.09056582360864125,-0.022538318778787304,9.715603851050608,0.014468289304014307,0.0174312902323824,-0.013448380877458645
729.88,-0.41158602907728925,-0.03761135342425631,10.275656183444392,0.019074084977317204,0.00925046352366016,0.01109487031210782
729.89,0.036149737173680335,-0.182979746936497,9.744677479477067,-0.014685600609192839,0.01587498736290566,-0.022804626709441927
729.9,-0.0585894802045519,-0.023922896744840376,9.89915026788298,-0.0004827291327199441,-0.02166100107924917,-0.0008366051786743929
729.91,-0.0039420640717535505,-0.0687959176655445,9.949699684155592,0.004899002839921874,-0.009776762557413585,0.005200108717840588
729.92,0.02865717330927272,0.16946814054068443,9.780352858114277,0.024788747412306047,-0.006290314761838084,-0.03421496182976549
729.93,-0.01914554604041413,0.3227695548502785,9.367127221056167,0.002191188122133486,0.0342090288374171,0.013970222566327921
729.94,-0.030398987061339942,0.16763005252017465,9.89337451159896,0.006690898014438544,-0.013460032749433545,-0.009572211753781305
729.95,-0.15108819839620655,0.2842553077267102,9.964949415876635,0.006545089959559257,0.020531225588215872,0.017444968630317043
729.96,-0.016348682103583347,0.06465917230194644,9.781223984653685,0.02958240893432688,0.058737823396582935,-0.03363636390729309
729.97,-0.07322931373985758,0.09154093963925751,9.87511759033399,0.040752929021253756,0.0049537769248635,0.002629622688785025
729.98,0.11671642440999719,0.033788763973168344,10.026511718167324,-0.025601017560380437,0.006534844390039657,0.011794805417672055
729.99,-0.04183835510144688,-0.345805175101215,9.600428511738267,0.012966673926181107,-0.009938854395644922,-0.024670980871788088
730.0,0.006793559744534272,-0.1811974346880296,9.813601031163053,0.011135305847705047,-0.011708272805932384,0.010208599127339396
730.01,-0.18755920171349996,-0.20113726898723205,9.825586416199313,0.03865524743362107,-0.013523780670270217,0.007196461683306074
730.02,0.029613230787781955,0.10891843975013694,9.59336125367634,-0.01232758446368646,0.0051572592738178425,0.0171568941224559
730.03,0.2284211112567003,0.3715371170094553,9.81315510694254,0.02492794999302577,-0.038861932539586835,-0.029836067187815254
730.04,-0.023056380383671277,-0.02057313911599652,9.660535536735098,-0.006946417575107263,-0.007851069782354171,-0.030774137562188553
730.05,0.011580006019635285,0.3383143945929251,10.069681378460666,0.0033777653205653096,-0.014285212349614877,-0.040675101471912944
730.06,-0.1368260497775163,0.08568735169933761,9.949350328156441,-0.024253628940794688,0.05246803240484581,0.0003377538243830751
730.07,-0.146910332518382,0.08999299749503799,9.712754500568312,0.0478140481141384,0.026748308442167003,-0.012489626786586569
730.08,-0.2993872623551594,0.023716702121612403,9.587430422408273,-0.008186141044486448,-0.014175174788362254,0.00433956037860766
730.09,-0.05280534461222116,0.08276199591617028,9.924081665766616,-0.003987211147796748,-0.012143525264349812,-0.04200948342318797
730.1,-0.04328596423608628,-0.015311425544132565,9.70254431670266,0.02816461164804878,-0.03538152634331426,0.03290396459218869
730.11,0.14245340130464923,-0.1071405123189058,9.884541637792598,0.006144244710008756,0.027099568672803682,0.013083028922758314
730.12,-0.06858759780506757,0.5735485587623429,9.820453672247394,0.003034561151119346,0.017461000293356736,0.003353179353906119
730.13,0.0034098081359464215,0.058128231285997096,9.434427859336223,-0.009043424407973332,-0.008337618966508585,0.0022500719117868728
730.14,0.1506651301732705,-0.09000401621756421,9.680855773202698,-0.020851395430755183,0.014300336429900768,0.004400714251915781
730.15,0.12482920122603873,-0.0645117316580584,9.6368388469269,0.01665258603505255,0.0030837428872697937,0.03165927178111352
730.16,-0.20157598603808544,0.003219865412207861,9.76496336455605,-0.019557524325786783,0.03635486211843935,0.0016910479710426766
730.17,0.04876223577693383,-0.12721555685001945,9.930123868523156,0.013191291128892063,0.005805359803753204,-0.03564955160512423
730.18,0.12074189438983525,0.13722784336662358,9.716355278505615,2.0361623013948347e-05,0.01688380144125906,-0.02465977927568796
730.19,-0.1291817991477208,0.3292080565908494,10.004055887030791,0.001967086821304219,0.013000175267886941,-4.195959963140028e-05
730.2,-0.11999674186857724,0.10093251816711946,9.556561860641562,-0.016519790009603498,-0.02206746204499615,0.0013219850452104
730.21,-0.006684806386471968,0.21284530762723625,10.034472963437091,-0.0410287139471558,0.0034235287783165205,-0.005692373732083886
730.22,0.025784961405509364,0.32315503963004205,9.673216628744662,0.005540990673709142,0.01343362398354322,0.007362805294490806
730.23,0.0001339902621871558,-0.02223610351688965,9.597356375987527,-0.0053509943717449495,-0.0005709344353277955,-0.036376710424599126
730.24,0.11900181867100575,-0.3094645335470972,9.984935201978391,-0.03816986925501149,-0.05937807120911974,-0.002800651532713141
730.25,-0.09023769681373119,-0.024070156166052174,9.837606259305593,0.01355390863120703,-0.017484753424787298,0.0014841883199232984
730.26,-0.08728336280966513,-0.09902555529416543,9.78069140421105,0.02114851683993147,-0.0045199177261748096,-0.009559119632721642
730.27,-0.09565421251520641,0.20674240704688918,10.14495540738274,0.022809519924304307,0.01624775957253593,-0.023722307581164465
730.28,0.19291099071029222,0.17283674418115555,9.970360070751425,0.010922612974571342,-0.02323979234954238,0.0024968843637422833
730.29,0.07745571037502573,0.19116133483124986,9.900478784261654,-0.01903809952061824,-0.015012178445253042,-0.010674162941831222
730.3,0.22893412338206579,-0.30893161047693063,9.757590746257687,-0.00015824925046524493,0.03014108512313963,-0.009245452216749215
730.31,-0.2061800467294843,0.045522925606922504,10.016972031001165,-0.005864946893028508,-0.0018280882955143665,0.006582388876451896
730.32,-0.03668114637847983,-0.11581887675754307,9.830856720902483,0.011100305705915163,-0.022092435989878055,0.0007325707335232979
730.33,-0.022944441362837516,0.056251998269598695,10.24077933259488,-0.015497180627101504,-0.013557292536556928,-0.009445460965862261
730.34,0.24964490350800148,0.062001521071397545,9.646998022173745,-0.027429613634441942,0.004524589423125491,0.022619798918893243
730.35,0.03993989318887058,0.034422429289336164,9.831486449535188,-0.03477825006614162,-0.02003966002193874,-0.006220248156406771
730.36,0.22386194640519602,-0.23395977068183113,9.884431626507288,0.025121977704534167,-0.010658099244756638,-0.025651529972209052
730.37,-0.3303294181831848,-0.1640779916689642,9.963386808960268,0.007263310781294444,0.008674980000920533,-0.038371275481353495
730.38,0.06119894413632228,0.08650764151826322,9.589935179327485,-0.007544477291860521,0.007738016027485427,0.004791344325895903
730.39,0.18771338740718613,0.19652831559838738,9.749316004062779,0.024808174856783972,-0.003195998773762383,0.030326137855063807
730.4,0.1612901033701771,-0.18682710815775744,9.908952892728337,0.009573981367780005,0.009231624412065046,-0.029802736981521596
730.41,0.012098939947735164,-0.04974657393644183,9.78872887089573,0.011473846694212744,0.009120581878021191,-0.02589137827255694
730.42,-0.2167531380538442,0.28552276129760407,9.808974828805141,-0.008541686436408834,-0.02930515488170706,-0.006752538059455401
730.43,-0.32777890467781734,-0.2600639074622657,9.903797206120645,0.0071538816195312275,-0.02000960471409148,-0.024111932200739945
730.44,-0.03925148252079648,0.0906753714931628,9.779107914722282,0.03287736228885135,-0.014535779077984427,0.011051952277548226
730.45,-0.16263600276179319,0.11095082666374854,9.721612791999245,0.015184369659615535,-0.007249775810812936,-0.005013250374263535
730.46,-0.005915968018729911,-0.010262254715324697,9.894802438230446,-0.02494524019602576,0.012575282623058357,0.01098191298308436
730.47,-0.11217012026119931,0.0783123070869899,9.812701391012068,0.016875355812018662,0.02700085252686155,-0.01267111515613252
730.48,-0.15020797001062428,-0.05109596676502071,9.359378680665566,0.00435372198260855,0.006244348433838635,-0.002812266730628251
730.49,0.20298578071608728,-0.28332787939603354,9.867115342858522,-0.0029312249063426165,0.0029165370398887267,-0.029324351404011323
730.5,0.19759220925935075,0.1739760002801467,9.971238210078715,-0.010166925731774693,-0.0082963481256183,0.003728185260499413
730.51,-0.2123218782758311,0.03709235078374737,9.760611733408824,-0.01096371095818641,-0.03271844881166505,-0.00014308683124037027
730.52,-0.11405017206458369,0.2685116740530209,9.893962457248767,-0.005578997575401685,0.02199608866997251,0.009484730168181596
730.53,-0.2010133552854388,-0.08366791227546208,9.797020309055547,-0.032826679870351975,-0.029640709703360697,0.03296293482310369
730.54,-0.24040680797261013,0.32251960182132156,9.696469557466619,-0.009387839634227828,-0.035425192198147715,-0.012420605959839225
730.55,0.2194226269945649,-0.18259645455325427,9.429265101835524,0.0008443910228379856,0.003871725285798361,0.016026812844813557
730.56,0.14891362989754536,-0.2903652688409273,9.58360652364998,-0.02001163959388069,0.026720754608112202,-0.013649145126207848
730.57,-0.09328091003109021,-0.03350097202471385,9.738089511228962,0.023260856710549963,-0.04434762534867101,-0.016943934003554553
730.58,0.1338517643558081,0.057987243776535344,9.676890603010088,0.0011027806694097345,0.0013119357881107212,0.013240141347090057
730.59,0.16414764584650893,-0.07395324526917522,9.694101791455155,0.004412521303861084,0.012849940581682658,0.0016030606223586333
730.6,0.3093067751785984,0.386644938489566,10.007826380278878,0.013380639866332172,0.02577132648662157,0.015173456589016632
730.61,0.1650386865324212,0.31837926811545225,9.740058236374516,0.03051981656042685,-0.008429005174895619,0.015578261082011878
730.62,0.20806978853809321,-0.04864327844197826,9.932248358863593,0.0026611530096224767,-0.03249978433949631,0.01285733232623531
730.63,-0.09780789512798192,-0.16424246430823428,9.803041093179775,0.023383479284794135,-0.005732850951049676,-0.025724603772291067
730.64,0.04689110503431237,0.10796533627275734,9.696899452851548,0.0059333216090752,0.006037867278984243,-0.007744242019856555
730.65,0.15627775518605563,-0.004212134676886159,9.967947259536134,0.01720868567330504,-4.782436860465006e-05,0.029036121364249955
730.66,-0.14211747552091733,-0.033187713277502744,9.739968655456044,0.02736260470626576,-0.025934697514725474,0.015122555074574986
730.67,-0.21187312644102774,-0.18583971524986442,9.750617263964838,0.0077654594425549525,-0.01375872908332175,-0.037004834482343166
730.68,0.021733365115834586,-0.313224718981873,9.707821284968793,-0.03251213897283298,0.03131256995313938,-0.031693044596600314
730.69,0.05643066327361753,0.053952022858292294,9.876859074436862,-0.000557748128837993,-0.005736327855032975,-0.0012767754527704333
730.7,-0.33667755500419516,0.11919971370494385,9.437726937198248,0.004766243926995387,0.007998235232637084,-0.012606832803734773
730.71,0.19620254904559872,0.07537889742097083,9.654862038877742,0.007875811265991996,0.006666250912769596,-0.023156607975157204
730.72,-0.10708128592886543,0.12725744423579233,9.716595621692107,0.0035038857566507546,-0.014626729630451342,0.005866156411947086
730.73,0.27489835884882774,0.007703364707948484,9.599712699881554,-0.057241623700381515,-0.004350590521788376,0.02040024453513922
730.74,0.28384737589632636,0.09784141490810122,9.25696235623938,-0.008540594106507447,-0.0044264806537003204,-0.008332012105057589
730.75,0.005554736364175047,-0.10842454255144722,9.401558973921867,-0.02499181010130877,-0.017194047409432422,-0.011296610245321893
730.76,0.09399784452516506,-0.21116508931021757,9.51413802287927,-0.008340746056879136,-0.004160863087054159,-0.006843383748267596
730.77,0.10689162263336485,0.053219899634938506,9.906030708927197,0.01032038659598134,0.01601131109634065,0.008813963969920673
730.78,0.1636053159402381,-0.04020548787788655,9.7014722736015,-0.0074651273507976715,0.006421106395314322,-0.013113584544477726
730.79,0.02312633700991598,-0.016753319702294545,9.484487650535119,-0.012169392297224179,0.01834164715475762,-0.0033702663125435264
730.8,0.2112171556356143,0.024761190856048887,9.903460877289072,0.012060625595843534,-0.003381568475984569,-0.013646575751347789
730.81,-0.19614021331099393,0.26735522676594303,9.99086104832048,-0.0009670207221042213,0.004627418500594541,-0.030598174491650063
730.82,0.16142219210683595,-0.11854236518899819,9.986468681496186,-0.010843767582787942,-0.023676851497096765,-0.006506713527536172
730.83,0.21488338547961694,-0.1551124633638746,9.859656135440456,-0.014898238117512883,0.015495838238809088,-0.00685420548935161
730.84,0.14035922716515523,-0.07838267126104716,9.820143579706118,-0.013756587473680379,0.013643223309650992,0.023038670669133687
730.85,-0.10895120140165314,0.22090851684032844,9.760258043005873,-0.008738361520722937,-0.008498233542745029,0.017669877987958424
730.86,-0.20004845766924612,0.010751367958144235,9.838197277549373,0.028485599555484634,0.014343200917021752,0.005374218189273338
730.87,-0.3708012140584845,-0.16313068874254347,9.95693601495502,-0.004604676625909359,-0.037016677505560286,-0.0024578720259396136
730.88,0.17646149948438863,-0.011848091688900645,10.067752633816228,-0.0014151420498479802,-0.004477745965143546,0.010135758313442666
730.89,-0.07752099101752281,-0.043110684860501604,9.68549530357431,0.017769420735841125,-0.0025489997709849843,0.01802790669027403
730.9,-0.03646073162099007,-0.1672714566491519,9.636745571843347,-0.02938005789724221,-0.030652170297939534,0.010611485327681571
730.91,-0.10394611486661758,0.035018346120852945,9.608326970193833,-0.02694032304571206,-0.02639173070355828,0.014451586673112289
730.92,-0.08164694592035567,0.21768452565399704,10.02550921463782,-0.02706964697506151,-0.01845955549202553,-0.01549161087657075
730.93,0.16519413130090999,0.14668163343421897,9.507135979615791,0.017703068355727897,-0.003052864683507036,-0.01637678415048821
730.94,0.1256239867076938,0.011156392812895747,9.66604736372915,-0.007620861473409421,-0.0009074758305985613,-0.06227004909639411
730.95,-0.16426100255314816,0.06021898373990821,9.79456367040675,0.02428250746915386,-0.019012593107078996,0.013894284790108218
730.96,0.05931280032009737,-0.02367241758663244,9.815862552740832,-0.02476842436638605,-0.0006931088079129359,-0.0015809495973381294
730.97,0.06544113344545227,-0.3969240908909989,9.968325273235086,0.012078323279717446,0.007829272117985482,-0.0016555233414516746
730.98,-0.21856276922487308,-0.14867705139818063,9.846925840133768,-0.008182122446012404,0.021562106399898223,0.013178431440199556
730.99,-0.24061056151775398,0.07630698602630111,9.905663423019002,-0.03665209752202698,-0.018860623519326363,0.004491675321153038
731.0,-0.22471728902980206,-0.08025086664893555,9.85018593289019,0.01642516368991551,0.004124485338271861,-0.02296799781816599
731.01,-0.0528406255406582,0.10425912145846884,10.092805801337123,-0.0168167473560996,-0.015416566846753257,0.011720459417088464
731.02,-0.04125067130257925,-0.027225139705709594,9.92998190798572,0.01783054541667519,0.006667993640648544,0.004132489947877196
731.03,-0.4423601037937595,-0.2159199466690319,9.822261341927472,-0.007375749471511556,0.015017507112688417,0.0040164589448859625
731.04,-0.0896522021064285,-0.03723544082230813,10.070942410627666,0.017061075663066968,-0.024450453317981936,-0.045293125602334484
731.05,0.06110815532593432,0.11269561864445217,9.46708945182471,0.01714198689659162,3.6911067475567356e-05,0.020021581748799654
731.06,0.044283230284444856,-0.04268791019979928,9.800925072772499,0.03338198791530486,0.03497329250612438,0.014993336227910978
731.07,0.6529602186200443,0.015362965354073546,9.755541312161336,0.016206707267975955,-0.023716999259333023,0.014803798990158363
731.08,0.13473819228539446,0.4411384409282356,9.747370934061633,0.015941068874203383,0.06034535843871658,-0.01046844735632441
731.09,0.030154042040063677,0.022742825101852545,9.668538241620604,0.0458390647063359,-0.01472819406191633,0.005323382146439735
731.1,0.10392082979801748,-0.31106590034662995,9.460469939493796,-0.024843938711190176,-0.00605984979905383,0.04482400400688501
731.11,-0.20769621145439057,0.05546931403109457,9.656312223114632,-0.01829122451706818,-0.04826102286615036,0.02220097697181061
731.12,0.3041889991723929,-0.08428261393683635,9.878187981905814,0.004094345605869412,0.002463117579727959,0.0006848878180496597
731.13,-0.020613590242782184,-0.21006233852711725,9.936799333577861,-0.03143312231655598,0.004814231694168746,-0.03050488764019906
731.14,-0.3826328990453168,-0.05767106479195062,9.634528167140287,-0.01556259786674818,0.010738902361522027,0.02175915401150646
731.15,-0.02061356745324632,0.15635751600178202,9.762018116035303,-0.013713684370098225,0.02652717098177408,-0.02320525092572362
731.16,0.09236352284012546,0.22982995893554972,9.84565198957075,0.009387997309964436,-0.010063197996359753,-0.0017735886009366808
731.17,-0.11681890320449873,-0.1873219194755616,9.934638781298345,0.015731302972710026,-0.018009678705659105,0.009986948585638289
731.18,0.37346918399142176,-0.10077756747640834,9.967471773453417,-0.025342869479679727,0.001378647429045433,0.04671723328498839
731.19,-0.12980915090538478,-0.06300850658102335,9.85312850707299,-0.02433394215552433,0.014718554948942995,-0.02638750389445812
731.2,-0.14651022471475764,0.06510564123249142,9.80355381038185,0.014277956474824225,-0.0013475503460750543,-0.003169571210999749
731.21,-0.39414185186498035,-0.05350941399370064,10.02322376174477,-0.01305646249858189,0.02131105208698443,0.0061541825298850545
731.22,-0.06594571230460759,0.01999509631241802,9.82107151322183,-0.03618175661057426,0.028366366173583235,-0.005197340846777097
731.23,-0.1188959363682611,-0.009288098469946002,9.400896484272415,0.023219661407842644,-0.0035039481151212,0.014153183039706646
731.24,0.19254923214278988,-0.06617399470538002,9.897066296008086,-0.005421880831763897,-0.03332346238323539,-0.014125954847019421
731.25,0.16310644663400725,-0.15125254090986925,10.05064194157909,-0.04096496128085009,0.015504569053307118,0.010398300139938437
731.26,0.15668768073021222,-0.21489136527735947,9.807478518008017,0.01582555425843806,-0.008885584094726234,0.018903186841051592
731.27,-0.040192382484768766,-0.09407042078527984,9.703647486074354,-0.007027958837912471,0.010963751675861255,-0.0358989522602641
731.28,-0.3182901454170874,-0.12057137312036818,9.718577757271294,0.02171909255069608,-0.021555397486786008,-0.04155411211978568
731.29,0.0908259466827137,-0.06931931082166667,9.804807957943412,0.017410225518895768,0.018507605805817607,0.004556749850694712
731.3,-0.09494836813673616,-0.1531576934965427,9.762949356474596,-0.03840415228040816,-0.005907313973847947,0.040716014206863015
731.31,0.17901580897292166,-0.11253118210873624,9.720649938415086,0.017502901941203696,-0.001827019029368926,0.017968266020977855
731.32,0.0331872775950414,0.12594663281186522,9.791011818217065,-0.03670301802902764,-0.008336263583719554,-0.029828282565741424
731.33,0.02574576261847441,0.22394053292061683,9.593000942817767,0.028803335815557902,0.035288930244659074,-0.028362761274102546
731.34,0.1333622812550559,0.10322081948152767,9.716284326204347,-0.0332920975782749,0.015430332020161036,0.009254761819049087
731.35,0.2643341001183634,-0.005423312348606308,9.7054949581317,0.045877416087253764,0.004156754804130635,-0.02855139271095018
731.36,-0.20380003794229848,0.10872548096479541,9.904806910415202,0.055462929534259575,-0.0037047736681931473,0.0031249546109447597
731.37,-0.0529429679859192,-0.15629143218270292,9.60555958432385,0.011334941312166573,-0.004357922946878697,-0.010945575523978436
731.38,-0.16844912040168247,0.002242732495700936,9.787877819023109,-0.020823945556156003,-0.033734745592875245,-0.00022502157393209792
731.39,0.0508369103248838,0.305683054661397,9.266823473825665,-0.027798522812897616,-0.00022219093615752215,0.0012062580591049477
731.4,-0.20885607322222613,-0.24006878842514953,9.543271248317946,0.030497429051394263,-0.014304594083099502,-0.03930875045753374
731.41,0.17822841548108628,0.1684976375323347,9.965199775626594,0.005195304038321446,-0.014724605890956316,-0.005836006565601484
731.42,0.258745917681778,0.03642202040100692,9.765847595855748,0.019578735904527425,0.00234248597171743,-0.029128529287304663
731.43,-0.3650628464914342,0.34048412144772305,9.843813649575647,0.00045395165445721674,-0.0007272990227738278,-0.04839913653941836
731.44,-0.07655059119127892,0.02921669009238,9.986817934257896,-0.0013046487079505936,-0.01715502978657804,0.017393882016494017
731.45,-0.20099053883482795,-0.1544121262622174,9.878255198831102,-0.015543174764791164,0.038373876453363695,-0.02664436584095162
731.46,0.12182551215393177,-0.09949476708158485,9.620055357874335,0.025667509758499123,0.003846353633543061,0.030252345594681634
731.47,0.02477377813669857,0.2346753838945895,9.766913726367529,0.008392373256279211,0.027617618133775796,0.02803860337691397
731.48,-0.04370263198901358,-0.08522075889606918,10.010910855415952,0.0163457968182572,-0.008384743863890095,-0.007972716007523395
731.49,0.2287142292509769,-0.08463373994034414,9.815543619542872,-0.02524233710777416,0.025006057110051837,0.020802278606012976
731.5,0.3836981383023484,0.16887386818490233,9.889755633350564,0.014038199186952345,0.0355930142616098,0.009353692292874777
731.51,-0.13542845636587678,0.15802553707739772,9.645437883730551,0.028268917046693216,0.006140899499927892,-0.020007582736980823
731.52,0.10673636161348019,0.0679576438554255,9.645739458803602,-0.006017936692088574,-0.035764351417519644,-0.0011184396215589653
731.53,-0.3437728472243569,0.3177373281575354,9.972640773359025,-0.01058031882687322,0.03546246376082932,-0.03651281071605664
731.54,0.15305721392208219,0.4148430675614327,9.936781191621844,-0.0044697974933085504,0.0031387514184824045,0.0027899014427071483
731.55,-0.16535239421830283,0.05305768121816814,9.42487567125492,0.004102516648405763,-0.0015683028045460476,-0.012044629677227461
731.56,0.012909246719429944,-0.22685883055690492,9.795583403920594,0.018856217935318755,0.005622495300169659,0.01623739991205077
731.57,0.02902321961302735,0.32477086062806865,9.519788804952531,0.03240625148508118,0.005534564278319647,-0.029022048247305966
731.58,0.11466393713005221,0.11808028208498735,10.267935601461865,0.007144406372870105,0.010524906832162504,0.013823930344047643
731.59,-0.2054992343563285,-0.13475879733702417,10.132840793094621,0.013606870740578739,-0.027926640684190308,-0.008542288294952599
731.6,0.08475922450273485,0.21121940245072912,10.000608017268952,0.019357651199798688,0.028212131234958894,-0.02202300779891613
731.61,-0.05329176738254235,0.292395544718815,10.159538229897022,0.01781174103732337,-0.03637842614440692,0.004000260968132805
731.62,0.1293918670751507,0.08851711234915996,9.695901290478332,0.014413774013459132,0.0005276488830443954,0.01748194889725417
731.63,0.1412702468574892,-0.1706079082661039,9.809005026367434,0.00986580735544743,-0.019610934413306434,0.009795036523504792
731.64,-0.16273012599247377,-0.1275751129301305,10.017268557192793,-0.035152761911399454,0.022342474305733603,0.03431434807246031
731.65,-0.07137554626580427,-0.004781518782379709,9.80909077096013,0.008522313128534534,0.009327808374530124,-0.0011987643475425487
731.66,0.1719950365467172,0.01992814603933609,9.392812600639877,-0.024597204820130673,0.017543058410416524,-0.019376121366459793
731.67,-0.10566241066306166,-0.10699330279926345,9.871422077322242,0.033864203744999134,-0.011225531440013063,0.014816873464620553
731.68,0.18048725370275095,-0.1686866632100643,9.906329226806793,-0.00806881546209631,-0.033823193360767986,0.02842771081775244
731.69,-0.07508896354856491,-0.050806644627491494,9.784682527685712,0.01870121184011013,-0.04399314148351792,0.024489726018867113
731.7,0.02264966385036199,-0.0049660499649423475,9.786737756457029,-0.006471898937616361,0.014536598617434903,0.00603824861615618
731.71,-0.09052904925139453,-0.11895352893444534,9.450521298277206,-0.006798236446920264,0.0008244853694307939,0.01215790874414627
731.72,-0.2828520481444606,-0.012857382446721858,10.045104639380131,-0.003322667847205661,-0.0015766453998919717,0.002993758029112097
731.73,0.10413066650750474,0.047531225326139494,10.099818497012361,0.0030915326209991476,-0.019463870151024437,0.0420113563976037
731.74,0.4490913972903459,0.0823891301417575,9.851432315290598,0.0014363498092509136,-0.005601969197114276,-0.016727788479906323
731.75,-0.1859444837781358,-0.18609767365190422,9.765802289195786,-0.03941249483884673,0.0018734913195149,0.01845225072365033
731.76,0.014983350386498642,-0.13165767960445834,9.993655520164882,-0.0019168633877321656,0.03022975236248805,-0.028010128195244066
731.77,-0.008524459767294764,0.35577054330703883,9.67438022292317,-0.014494345804228436,0.013923323628857256,-0.008975744347088062
731.78,-0.05767816871754807,-0.07756687223392264,9.213309272026317,-0.013225114197418295,-0.013674229578324131,0.00664086710304356
731.79,-0.1546262737448195,0.06929603302987034,8.897247591682659,0.009015234876062367,-0.009806978540855943,-0.04875225744781119
731.8,0.10416070208577137,0.048138711290292735,9.203359459688478,-0.04569388070634639,-2.00648317953421e-05,-0.02522133264420281
731.81,0.03318117630656634,-0.08832007855110444,9.1172266862429,-0.020665749358715502,-0.01008121178075419,-0.0008498712949795388
731.82,-0.2507374874210117,-0.043203253123564773,9.218564134774624,-0.009032939559293976,0.03231084230685339,0.007244233208692891
731.83,-0.08905170995693605,-0.013565776477549186,9.062451564230255,-0.004901677269655934,-0.017775039810813617,0.008720865010268222
731.84,0.2560354731310351,-0.15189739878974964,9.208398578785367,-0.025014001186548417,-0.007780522458131432,0.02031573952957792
731.85,-0.11411845385510264,-0.016223893131354822,9.040047458031912,0.06048774195948143,0.02622703959481947,-1.8801154702033727e-05
731.86,0.02739868286223659,0.07843293050046632,9.051902702208094,0.004668685406195199,0.004984766906162304,0.025007047078033966
731.87,0.024916573566315107,0.23861892880479688,9.069166289070777,0.00667282844354442,-0.02302572223394296,0.025813962202945014
731.88,-0.13338683317173428,0.22872709711948935,9.205644756764922,-0.015304045300587656,0.002264722006318656,0.003989022179388366
731.89,0.22550469196821513,-0.3243762067665155,9.109332837491158,0.014420410467616928,0.019267849715661194,-0.002494449340608367
731.9,0.20022653393071382,-0.3453423546073832,9.20530174298961,-0.015004353011341343,0.02267832651029873,0.004005392984393857
731.91,0.10070894386513476,0.21462933039073082,9.302335406803408,0.032446654672965626,-0.02212245311024847,0.019722722934792634
731.92,0.2095313787031647,-0.03812101531189879,9.464187370847108,-0.027862631504255417,0.031670839520946806,-0.005345984903506506
731.93,0.07494383914413387,-0.29819535586206664,9.511128978865422,0.01213276044490561,0.008254782121680312,0.024176324645201554
731.94,-0.0520846481061254,-0.06232607918723563,9.61128914207339,-0.016271774487417172,-0.03856155144976589,-0.022163026737449375
731.95,-0.0659084337209533,-0.06836285043411688,9.434546558223833,-0.006429531477012029,-0.0362343153597632,-0.024535181878470372
731.96,-0.045057651321123625,-0.11653517794713444,9.700863368010975,0.003735703305516983,-0.027245697772539153,0.012349685067404545
731.97,-0.09201750679057283,-0.10184355896059452,9.660155627459966,-0.012452632741088827,0.028521226686395666,-0.019045076169615986
731.98,-0.006728840502302263,-0.2496390984190205,9.918312555532694,-0.02123780948692656,0.02890696788059568,-0.023598910506260073
731.99,0.13082541157334257,0.2984557318117139,9.217291298795995,0.04432540136045419,-0.011857040559156685,0.003524800699467669
732.0,0.10170307029212829,-0.21265666996103755,9.748962008141545,0.006205333842279797,-0.02368450065007721,-0.01439239763105086
732.01,-0.05458827276617943,-0.002584692034165805,9.788559199545679,-0.009127378962890986,-0.00532914954413169,-0.00010280408037535682
732.02,0.15629832420327,0.024291158292016404,9.675007054999224,-0.004146219721079896,0.04774287709687479,-0.01215376634047034
732.03,-0.30051394847454066,0.08419179396907674,9.615906076637435,0.04296189144356376,-0.01776049630806358,0.01805759779783787
732.04,0.1894094313972517,-0.15744779507704393,9.384690774836693,-0.01908324848035641,-0.017679305271067314,0.02055421778023914
732.05,0.10345130412048921,0.17566159570223996,9.002258092033548,-0.023235626291072394,-0.026698045722495036,0.0012176874833892514
732.06,0.02565598666253346,-0.1471164420338472,8.894491373714974,-0.008232427729343201,-0.0029331521387630007,-0.0150450132674647
732.07,0.09063423700176511,-0.007677267031943161,8.84842443133008,-0.010060183756088994,0.025811327513120725,0.004930144022340009
732.08,0.1945846610122083,-0.24749165586872246,9.235611989453334,-0.03745548448526911,0.019810188090347767,-0.005078412342774243
732.09,-0.11497711282553265,0.16089599748368497,9.058085180607183,-0.007061183749850613,0.013443075642649457,0.0468419294655237
732.1,-0.015231815927252373,-0.020632420903463237,9.051725282967118,0.02402646460783397,0.0018559320417858526,0.011456534135047746
732.11,-0.1300179389458885,0.14905903600176929,8.795155042000266,0.010530670753967113,-0.00652533982306505,0.0027910925959433014
732.12,0.06781893000713593,-0.06261042429535534,9.19547527527865,-0.03024469647119037,-0.013344918440571351,0.0053433545621506305
732.13,-0.5353034361010677,0.25226832857447223,8.711113549590214,-0.028339931242182762,0.0007171290459060389,-0.02108872230299148
732.14,0.06122203625068753,-0.04694720040201051,9.005509963874239,-0.005939501577435931,-0.006884887070136801,0.007921442343913697
732.15,-0.10329342536094131,-0.011705556376118186,9.157290455457215,-0.030086427585347398,-0.010024165924087891,0.012885916488307076
732.16,-0.08451893526685769,0.051447543494568496,8.882647061528612,-0.01260254425064921,0.017624603795923725,-0.017847997208997022
732.17,0.2156595897899884,-0.06912854747582088,9.494572088308383,0.0025301754228708906,-0.026445199270039327,-0.037420902678700525
732.18,0.1893666512524219,-0.16959747775999912,9.11522287497789,-0.016255311375022466,-0.02142832439981056,0.0099815690474468
732.19,0.12107370322458978,-0.13768768711390433,9.377733868951154,0.0009457645083753034,-0.02044189201372237,-0.036794904103606314
732.2,-0.2463270800840885,0.10060467516550181,9.415871463749193,0.0028627142748444308,0.01689145361823751,0.0010887099905034804
732.21,0.05019762672629792,-0.08087614498049095,9.48932993377073,0.039795314986204554,-0.0023201536771433103,0.01405941308869046
732.22,-0.02302500622440755,-0.08962080107121516,9.256182039298984,-0.0035042781856906803,-0.014589069175159324,-0.023566703417446974
732.23,-0.11323169014614605,0.25134740903795105,9.309556160593207,0.014648167816082507,-0.0061141186621735885,-0.006590089605530313
732.24,-0.11165782925332066,-0.10487829046695979,9.096183098948105,0.005678473840310682,0.014529580897331007,0.024452902075498665
732.25,-0.0732867363482384,0.1218366541446571,9.48028811943065,0.01663247896833633,-0.036661067214507355,-0.007277038208595014
732.26,0.16059676471784945,-0.03609125976620661,9.63933989734407,-0.002668201590655118,0.010593767682429476,0.00882332326733703
732.27,0.17241942140325073,0.12941535455157607,9.841284909189643,-0.0030237627620565933,0.00793867260316794,0.004963373641740665
732.28,0.07627694656773101,0.030601651589104918,9.968802846118944,0.04056669607629378,-0.006242809970669493,0.010199865617711199
732.29,-0.20088971858212462,0.16624543059159558,9.867069365672453,-0.022185379060829034,-0.006565867619611732,0.0015825776910682132
732.3,-0.24132001879533269,-0.05258171416631047,9.550527357532923,0.026049470522071797,-0.0004403923448575328,0.00679758162505225
732.31,-0.18565302364436048,0.07576126084454636,9.84477928185125,-0.02713520167914861,-0.0021028332635977523,-0.01439645624575529
732.32,-0.267147287710921,-0.17650947634354253,9.78011977309123,0.0010278962936632633,-0.03781840388143613,-0.01725020582224222
732.33,-0.07727378112367757,-0.09720434301254845,9.705098867002292,-0.016028551112483358,0.016123447065832668,-0.015494178016071138
732.34,0.15664886750280646,-0.25681596859802697,9.725785209147306,0.017527287783174802,0.0010670572728555794,-0.01701917842673173
732.35,0.1118791222385451,0.2507962406007264,9.801376208806753,0.009158434082763152,-0.00792496040286138,0.04190403048587002
732.36,-0.14803678295513079,0.03693227692265609,9.737779376585713,-0.00032094956088743926,0.026124803402409035,-0.0016846127808256399
732.37,0.32975514878795414,-0.01632717021809923,9.853060657776997,0.0053501309862260885,-0.007311481021992244,-0.02383396707391314
732.38,0.023063034601818345,0.019647343767944386,9.714219602134339,-0.0033948730623414767,0.0015598938843584828,0.020956767230938676
732.39,0.06967435020391413,0.18154063270488435,9.578625603173764,-0.014951603345076796,-0.016502871199491242,0.023333641961469673
732.4,0.07542672923858958,-0.32101311477161043,10.023178824415048,0.025018405718213076,0.013882641463775856,0.002468856142389831
732.41,-0.4171557903398866,0.14169387043968315,10.037604784796995,-0.018099219310736745,-0.025691996942127995,0.00020374060587967634
732.42,0.014793895219100359,-0.2705011819273844,9.542914218898646,-0.0005860451659801066,-0.004836741055086943,7.544022237540735e-05
732.43,-0.1546788185958412,-0.22995585675938165,10.291224091789582,0.012396275486921052,0.021553731450290877,-0.021973030686315256
732.44,-0.05902751862128531,0.17373766119320513,9.938327405734746,0.011113323505906552,-0.027879469929971572,0.0035849581740454405
732.45,0.1824809423604093,0.03604689564824995,10.208992572983027,0.002697374142777831,0.01213518270611093,0.03589310920410702
732.46,-0.016767922675809822,-0.012709674519149682,10.055273363342739,0.07181140159959283,0.036367575404217055,0.0024322527601258084
732.47,-0.38515758326793903,-0.07327992584304356,10.365708152135648,-0.0355373456986584,0.01626953404623418,0.010687670019185365
732.48,0.12111774837676316,-0.03255077994236891,10.213310481144491,-0.029035798672179754,0.023527668902224963,-0.02406642419132417
732.49,0.21172204464174263,0.043163470637796075,9.898142390917961,-0.017131759352140834,0.028687412581714655,-0.03342614202803162
732.5,0.07635725366698648,-0.46897988245761973,9.618764712518699,-0.0018240253131398317,-0.014656549384186823,-0.026604242193267954
732.51,-0.12039215132162469,0.07513280469009302,9.790432180416195,0.0176183725006662,-0.00998450458222646,0.002173028677840592
732.52,0.07856095584431418,0.22462942475521555,9.597344658329579,-0.027886379919567113,-0.011633810736274279,0.025486489576105918
732.53,0.11625993318761535,0.28007030681979594,9.507311112433587,-0.014739236733067216,-0.050290429583765735,0.01098621756995306
732.54,-0.18077735471156844,0.1427965802995021,9.262190198231798,0.00681707197207677,0.035128168368087354,-0.02055457048930784
732.55,-0.22662118621568145,-0.20267332056538317,9.354228821216783,0.02944064056242465,-0.023801133937932734,0.007918151765039077
732.56,0.29850832823426987,0.14341339449247953,9.460801753179917,0.008230325644904246,0.023959329228383664,0.0028086275269961596
732.57,0.13969880187326617,-0.08782553543374604,9.654968058414532,0.016297620750387206,-0.01350773285125784,-0.00812180441452929
732.58,0.10054678849611891,0.017772338118965596,9.508649767025823,-0.021393913605075542,0.0140501634673369,-0.009085611580982233
732.59,0.029515213741837867,-0.13252576220157794,10.040625009763088,0.0014852067263664735,-0.029364102325135533,0.0124258798121236
732.6,-0.06567049059689553,-0.2772529726950852,9.51854938995529,0.013766339435545543,-0.0173564622446863,0.005724980610224912
732.61,0.05051662701194332,0.05413338501806026,9.546159502570964,-0.0021992255193675854,-0.003966071768439416,0.0004193292993242369
732.62,-0.10730966977902086,0.13612526570196606,10.042139550837948,0.028775883795001237,0.02615229815961657,-0.0004336934420676196
732.63,0.14105191110861173,-0.01563501789496346,10.021493135026706,-0.011063812515494745,0.029335042134935475,0.010326186264872436
732.64,-0.2169789057251573,-0.16065926639980888,9.582913673792401,0.021845857512007166,-0.026871634696750257,-0.039533873245885136
732.65,0.17654093497963494,-0.027042569909172483,9.713306778666109,0.0063853225563606265,-0.00014267981060459532,-0.004279657529835626
732.66,-0.22579600267504651,0.04770016060485149,9.937527224142809,-0.022351120182669548,0.014692068226896862,0.023054717068885466
732.67,-0.21749451065714406,-0.05165300585826134,9.736727875879138,0.017199471063398895,0.0139250571659199,0.001874055576015809
732.68,0.09857615828152874,0.3946299000347173,9.62469091481507,-0.006326554840951881,-0.0037123255563484597,6.300631484706637e-05
732.69,-0.10586075085131132,-0.15869532779613602,10.207327559565503,0.007088887964501147,0.009695079598702082,-0.018447572294025442
732.7,-0.10497046375665235,0.045160753956514844,10.053967679220376,0.008126098584502448,0.030356659476829768,0.023424528763939342
732.71,0.12069170789881356,-0.18389238778931857,9.686958961411298,-0.009349743608528683,-0.022484688163192424,-0.010243887585975484
732.72,0.08466674327678761,0.1761931859427046,10.241093785893009,0.005751277355885976,0.019454118683283034,-0.006781274756348303
732.73,0.27945995976805044,0.12227992411127193,9.613484865801269,-0.0026133573571566313,-0.009508007016240808,-0.010268487363709937
732.74,0.24516079530995485,0.0728702946422293,9.955564980715376,0.01768813440564433,-0.013282675134990792,-0.04848339200618824
732.75,0.03836574968498912,-0.15487006148456314,9.606550864668701,0.001325793854978137,0.027739574509804858,0.01853409833412828
732.76,0.12118189079354752,-0.05856598863949381,9.642500304944939,-0.014208052296842353,0.0011830113040258623,-0.004686481217762281
732.77,0.15778547369223953,-0.010732824120070615,9.431169271283196,0.0020044609886173993,0.027629583014834425,-0.001075306481060437
732.78,0.31471005307865574,-0.23714384271174904,9.248458349641066,-0.0006932093088154413,-0.0034574006283349793,0.03328394415839237
732.79,-0.0014340046919125034,0.1304571206673705,9.8532717223252,0.0038619695898511673,-0.02184524179379282,-0.002724876221365378
732.8,0.5286075746251113,-0.2588379902905143,9.577265189593945,0.018719223228928626,-0.00016310406505206352,-0.0046775311526270815
732.81,-0.00586045129091843,0.07711355927839056,9.581284388556968,0.022261245796795923,-0.004858287491674676,-0.03287888989818552
732.82,-0.3727226917925625,-0.07223675659099713,9.358545717073007,-0.022052603375927373,0.00947738734842055,0.009110495850004922
732.83,-0.1273467266306242,-0.3711063161038965,9.239182933163384,-0.036550859970937113,0.010423010166076465,0.03593591001355091
732.84,0.32047328509561485,0.01485607151851895,9.485574101165904,-0.04134522389385421,-0.013292353590526404,-0.012971611572744393
732.85,-0.22959635965605052,-0.09526207721617426,9.61298309380179,0.015044630656046613,-0.016516876879293683,0.031602651029113346
732.86,0.024115191004631012,0.05916844636735056,9.488972064084647,0.03834890457081007,-0.010790593345253958,0.002154497146689481
732.87,-0.0813482931640411,-0.3719983186714063,9.483761273745149,-0.033082205925386375,0.009927062251231118,0.019905777165886963
732.88,-0.3501520293188789,-0.023864288280442663,9.807288783919093,0.018363258411523396,0.024523738096724194,-0.01041770562452995
732.89,-0.1920781944098017,-0.15592233338259295,9.886162493682564,0.009412171674138136,0.041869554356879654,-0.0007347473432891453
732.9,0.0009086314725579442,-0.18412879123981932,9.52161220632853,0.00756675553425502,0.013579658857675807,-0.011754226813705011
732.91,-0.022312263330849697,-0.31435573218934953,9.997103159701144,-0.007279666375409973,-0.012674709094446747,-0.019549053454719374
732.92,0.2709836326543823,0.12649563713439535,9.870641306932459,-0.008150152409060536,-0.012085913670491465,-0.02565376837256322
732.93,0.1774598260499198,-0.10161407352474289,9.955354223267513,0.016284404492511766,0.007875218090346633,-0.002303661265000261
732.94,0.19025477735487914,-0.057199982418978584,9.428718820280363,0.01806583346844763,0.010126576030804652,0.013135557017639217
732.95,0.12800943367779402,-0.17899022546159168,9.723728197051818,-0.0158620974177571,0.004139540844718562,0.026281593661069712
732.96,-0.041919281690247306,0.0003584413770083654,9.622646682422374,0.0019354506165999246,0.008239740196916312,-0.005371427080739635
732.97,-0.3371697417524733,0.22774192589051065,9.588314484330454,-0.02846674444768118,0.0027675986525372816,-0.0033832672282340342
732.98,-0.061458406467277044,0.035341892726296,9.503687452722684,0.026419899071610135,0.015961094406655923,-0.03983434277697973
732.99,0.19519395737841055,0.5574048497076579,9.927407645795048,0.010361615867668069,-0.011802239262725783,0.024798860713608126
733.0,-0.0420876269968805,0.20404707863933153,10.256802808856742,-0.03370502361541734,-0.0094521657477547,-0.01370412031516084
733.01,0.112520417305747,-0.020139442351691076,9.659878774643902,-0.019801187034764987,-0.011073906798205873,-0.002079760340820883
733.02,-3.252999943717506e-05,-0.11856712156614994,9.59861606863264,-0.032928173264696575,-0.00162305106653845,-0.03135471922502804
733.03,0.01026102255215119,-0.004191172926655131,9.846071987063285,0.031331546242900916,0.03395527452574788,0.025638104374716763
733.04,0.25880684851410357,0.2843844969286751,10.1609337119959,-0.04465472011135791,0.0003970285969177078,0.012936115089877569
733.05,-0.05147906229347639,0.12338920505355086,10.336740569383645,0.0003872478097341255,0.01579469256744716,0.03754870298957248
733.06,-0.17435134551870538,0.12681606758764766,9.680829120561059,0.00029756621465675334,0.031176045460575667,-0.032595987444659046
733.07,-0.17227520016899933,-0.37152497483197505,9.903229491410764,0.009609113749376728,-0.0217695839521826,-0.024610832073346613
733.08,-0.19043026940151458,0.08036941690187512,9.740291626352246,0.004357187693082624,-0.02010256649898835,-0.01561922993082153
733.09,0.33036298686773213,-0.017777278726174024,9.800776892554302,0.011446285702546532,-0.009704886103852783,-0.013304649757236501
733.1,-0.12049982780620375,-0.1830994225188647,9.767653080847333,-0.010671146682004879,-0.00449257539713337,0.01053132519409062
733.11,0.158650744414197,0.15195862522913264,9.389497264890862,-0.010666150777117618,0.011948743052338168,-0.013219705935372215
733.12,0.012638989690094068,0.051606605811218724,9.972824198214466,0.03306688382155568,-0.013427741363159024,0.005999084377375947
733.13,0.22752247289169958,0.27914680240076023,10.314235260571866,0.060176133751351515,0.016576372703000542,0.0145086029814551
733.14,0.22093306003458157,0.18308411020532792,10.267127400306963,-0.01877959960804406,-0.01788703814879571,-0.004766905400906839
733.15,-0.029375694079842838,-0.10733978420648656,10.259161711384147,0.026421632586889406,-0.01048217368107544,0.007321072486967495
733.16,-0.03747418672564771,0.029814370969178192,9.745938811112271,-0.008581929867593938,0.0104249306414177,-0.012791355008162142
733.17,0.11586410412873147,0.14055640656980323,9.885438070264554,-0.001731209144914073,0.0263102035774366,-0.010723269019587098
733.18,-0.03117410301387873,0.0778869672007064,9.501920135611941,0.026448249362647003,-0.02122826354794569,-0.017809593166289363
733.19,0.007724601887222058,0.1912144816111989,9.398002753726676,0.03391993407033434,-0.007288264486750408,-0.015130229698610873
733.2,-0.119255422917189,0.25946685896459976,9.566550321536731,-0.0049653433399730355,0.002603699399972238,0.017015664057096425
733.21,-0.027909683551196038,-0.19489226889287095,9.913948951466331,0.005860306440203883,0.0088580201581253,-0.0005462712465512576
733.22,0.1513199420144074,-0.30991204767753694,9.64720321548535,-0.003322888377206176,0.015690534528861433,0.0010573021496902732
733.23,0.16854579643283849,-0.010905570944872859,9.641484358864275,0.007174601620374771,0.009915008122384161,0.021396117433985958
733.24,-0.1486472554688292,0.10249521614242456,9.480137667716571,0.0061456334407127035,-0.0025034208566039663,-0.00015404675202282714
733.25,-0.05994152283047885,-0.034020822292397924,9.747862561272402,-0.005415755719032531,-0.05193024712235973,0.02400009784141261
733.26,-0.10020466690678914,-0.03737039875882192,9.650572736213146,0.018390603877940868,0.03511047727391326,0.000282742987862865
733.27,-0.13361431785563493,-0.14794619738722126,9.634376001638884,0.02420489108508816,0.044824350118451664,0.025773801993878687
733.28,-0.20166539121515636,0.2117200993403639,10.027204231744356,-0.006120403423478287,0.00047032833265434304,0.01163731635586122
733.29,-0.19312208787329524,0.27240268395581524,9.81454475430974,-0.004632981626244284,-0.029790310676842728,-0.009581791952807872
733.3,-0.25919688630283994,-0.11114870537407633,9.70106865241541,-0.0022017437987911508,0.020793744027222696,0.007171175624813139
733.31,0.17567143089433856,0.20194293640238706,9.966317902642448,0.013871946596037672,0.0003973451930507704,-0.010215081260591601
733.32,0.05052462138307943,0.23005911401510645,9.694354440166826,-0.01398805609464539,0.014525348475415286,-0.03853991652433623
733.33,0.0799439239274561,0.07608860519148447,10.002079762189858,-0.010757353252988437,0.024856420359096156,-0.0034374095899255145
733.34,0.03844187347695975,0.20841625694783353,9.855078585909865,0.02162388881957241,0.0012863154650867782,-0.002652862957306507
733.35,0.11968315869131167,-0.2197024530010831,9.866821381727304,0.013531292125548641,0.04314134585493959,-0.028234557611837737
733.36,0.02905815976117018,0.4468432998979052,9.80236753149733,0.008870152533036782,0.021960702087907073,-0.0012955907632244638
733.37,-0.30349729303979983,-0.03979291837767163,10.24863727419106,0.002611894877694603,0.008316062657333086,0.008127293976757793
733.38,0.07116312390157427,-0.2492576870182798,10.3102566604152,-0.016786938716323176,0.027198082506347518,0.02233555163150875
733.39,-0.04401383125528721,0.019012800015396153,9.877741813049683,-0.023662440126382557,0.005785195191613878,0.031673527419281554
733.4,-0.1025204591938795,-0.29951824207519145,9.822999171488645,-0.0005068099567754541,-0.016670527119215846,0.011667911036742822
733.41,0.16128786749344476,-0.11596411189320875,10.412067198827632,-0.010850508560383465,-0.013443142880269448,-0.0054769311757982666
733.42,-0.019171644572512175,-0.25442348390594083,9.95603369488547,0.012698735354309036,0.019787081352388627,0.024718497621709582
733.43,0.05238434053120742,-0.19008505000152137,9.829660901046875,0.008919812406569635,0.02735986678887821,0.0027006173600013926
733.44,0.15248084340220053,0.2398525455777124,9.833352977838349,-0.009925922329686428,0.017685176142394874,0.024050166596287625
733.45,0.2531570650614727,-0.1265109712491562,9.666536161716818,0.014077497796603137,-0.013993137905157237,0.041607259793020074
733.46,-0.0033028004840410753,-0.02517573566437328,9.933553125186409,-0.02552576572019308,0.014589262094647198,-0.01060767732373007
733.47,-0.03318407081849908,0.015165871325770562,9.772013106020069,-0.0007143565285464246,0.03473552040850734,0.033774637818298814
733.48,-0.001764195390126652,0.004739669068874401,9.660825259562566,-0.021215146467143033,-0.0173551969944023,0.015891077055534036
733.49,0.018770706118586264,0.13254288666350028,9.385044724447162,0.015358570869343861,0.013596303638652819,-0.010006193961243718
733.5,0.05219167931495529,0.011020798659448428,9.585807041575812,-0.0108815204389419,0.02842322889563213,0.00251390983027976
733.51,-0.01749906765278652,-0.27674233987479974,9.86517683914806,-0.020288830481006007,-0.01614188161214295,-0.030864717008387405
733.52,-0.07357194316946301,0.10762434980208364,9.348997389966227,-0.0055799230932690475,-0.023737102610373303,-0.014056258229943828
733.53,-0.207689837014304,-0.17932710094205423,9.414777648927535,0.00502632082521776,0.009004415435380733,-0.014922734349514735
733.54,-0.08845865655442972,-0.27221557755133147,9.627840995225041,0.016953109350422425,-0.010717363771386278,-0.005661465120799115
733.55,0.08866622402305704,0.07289935589547163,9.671996883986749,-0.017715444112010627,0.01142685193304076,-0.01183135266170853
733.56,-0.09955428835024245,-0.04095370071893961,10.125972716189102,0.03061763773432459,-0.01172592262749624,-0.025865385933611915
733.57,-0.16893452254383165,0.22133549566274652,9.904920388036095,-0.005528257934587976,0.01479402850023766,-0.008654450090957009
733.58,0.24645545702352817,-0.3887363154739107,9.673750100552011,-0.0010281149306740505,-0.007962682944525118,-0.00021852840652671735
733.59,0.34852949709156655,-0.08251486173832864,9.691294536111327,-0.020233249818846173,0.021990439631056572,0.02927958682166887
733.6,-0.17223545494854797,-0.03461267647564934,9.893269462847432,-0.04985969227822372,-0.016316025367075302,0.01386391732439041
733.61,-0.01972195270296062,-0.01920655165872633,9.553180566188571,-0.008111768759546169,-0.005878837080782557,0.011022697520956347
733.62,-0.2845724887904415,0.10499193476577173,9.771576520644825,0.011442775102495415,0.007931220885028891,-0.03682264496422147
733.63,-0.24838228946373628,-0.05334359469982554,9.325018959601298,0.006974967062295589,0.02677841624414777,0.015224177171824008
733.64,0.25485403350875785,-0.19811252433226673,9.5969758993004,0.0063373820466556255,0.020635948860080206,0.010005429218709474
733.65,0.11105458612240349,-0.1696570347399297,9.37486481886626,0.020912226320738723,-0.013445871906831504,0.0008440956988893196
733.66,0.04538038001597341,-0.0864291380926525,9.86587539625067,0.00466149664735209,0.0007752147361732871,-0.008911971597128135
733.67,0.04538693528104969,0.30452088156066853,9.606716855164585,0.026164921170033183,0.013176165628581633,-0.020860837192187343
733.68,-0.2581519757732492,0.3184243199353856,9.73895407158059,0.005031163674201624,-0.002951383325268181,-0.002972721639657712
733.69,-0.14478608342059182,-0.16105806006355225,9.64375785041303,0.01394605091451157,0.002290494762903455,-0.015709709694619902
733.7,-0.226803646533501,0.05411693503103737,9.84766833198621,0.015625148572315985,-0.019675111470849854,0.010998653823691003
733.71,-0.12029311245586123,0.13815825877941332,10.044868794023127,-0.006520679126021171,-0.01985252825499499,-0.0040004946198995625
733.72,-0.29935286965182456,0.1701201437147267,9.574890299151726,0.000768727847032868,-0.005943225736392854,-0.007458339632453591
733.73,-0.05200291890068575,-0.3963022341432735,9.970097007830377,-0.010512280876052556,0.0034833791922881914,-0.011709261646924396
733.74,-0.14492426775067177,-0.2083459594745192,9.866373475675195,-0.02879533727061901,-0.010814910422621945,-2.2468625585551273e-05
733.75,0.23520031630914928,-0.2533024286046532,10.239700884724476,0.011997736208373133,0.027370748751339453,0.006037170679680341
733.76,0.018746286522660856,-0.13415520873775066,10.353696295153973,-0.040311517215132237,-0.011178691904465602,-0.010918836008897651
733.77,-0.0065083475058039285,-0.3149679290895921,10.073167554234107,0.0052325609575722635,0.03540865816800408,-0.006524696689558321
733.78,0.07851659017964266,-0.11280117601983329,9.787507442811382,0.02100044649172049,0.015308270396473493,-0.02450025870247428
733.79,0.11989296982064832,-0.17722219498516764,9.701549842859503,0.022768135423297583,0.009161391055050557,0.017468177955810214
733.8,-0.05129482501086085,-0.04278727157297071,9.524884739961962,-0.002316577343068452,0.002936455915832645,0.04447692857966133
733.81,0.1404802400975148,0.044922416155037205,9.866207811076787,0.016349854138127208,-0.005295877178678909,-0.0019167446519644804
733.82,0.3378216589928245,-0.017715098430662837,9.558966398555468,0.014167461715134085,0.011397776214362854,-0.018419999133217207
733.83,-0.038623909066069065,0.12318126022411996,9.789927471354407,0.033731262205507824,-0.04465652840274822,0.0011295821287612483
733.84,0.09621037635148474,-0.08482764084565145,9.5608086936894,-0.035660828220126554,0.014096082885055318,0.0015509307970298554
733.85,0.2834023421223801,-0.10415471688531262,10.243033700656664,-0.010365391839891344,0.022161290792817163,0.012001177305807905
733.86,0.3738512845980859,0.18361730761282066,10.342349721806755,0.0046144886784378536,-0.014828329610844355,0.01239067834289711
733.87,-0.2263747846238887,0.18526963284184877,10.132040108557048,0.023242430994659922,-0.012824492644591647,0.03095302664446597
733.88,0.02303486931343479,0.17935144483224658,9.95397277995953,0.02252398962820984,-0.002313843994607942,-0.03894032829251513
