t,ax,ay,az,wx,wy,wz
63.852528,-0.228882,-0.265057,9.786108,-0.003117,0.002950,-0.002846
63.862425,-0.237203,-0.259990,9.774526,0.000747,-0.001200,0.000370
63.872304,-0.233138,-0.250376,9.779905,-0.000790,-0.002115,-0.001870
63.882207,-0.242469,-0.267549,9.765124,0.002859,0.002410,-0.004197
63.892076,-0.244081,-0.261462,9.778828,0.002178,-0.002898,0.001678
63.901975,-0.231707,-0.262611,9.765889,0.000184,0.002103,-0.003457
63.911847,-0.250355,-0.266022,9.781771,0.002814,-0.000964,0.002617
63.921758,-0.243322,-0.225618,9.806596,-0.004693,0.006662,-0.004935
63.931619,-0.239866,-0.238275,9.796218,0.000654,-0.003510,0.002872
63.941516,-0.236813,-0.259720,9.763076,0.000187,0.002575,0.000784
63.951397,-0.236052,-0.268193,9.790955,0.000149,-0.002206,-0.000152
63.961297,-0.242458,-0.258470,9.806171,0.004819,-0.001273,-0.001305
63.971169,-0.249350,-0.239131,9.807142,-0.001831,-0.001707,0.002197
63.981060,-0.240419,-0.248839,9.795224,0.002491,0.001763,0.001317
63.990946,-0.242460,-0.267720,9.794236,0.001345,-0.002028,0.004311
64.000841,-0.237537,-0.230833,9.795009,0.000040,-0.002104,-0.002578
64.010712,-0.245184,-0.230980,9.799461,0.004291,-0.003428,-0.000783
64.020606,-0.243707,-0.262054,9.798286,-0.002435,0.002444,-0.001700
64.030486,-0.256956,-0.243713,9.818671,-0.000310,0.001181,0.000283
64.040388,-0.244088,-0.263244,9.803110,0.001084,0.003088,-0.001246
64.050256,-0.254844,-0.254273,9.780936,-0.000538,0.003039,0.002732
64.060157,-0.232670,-0.246387,9.798245,-0.001312,-0.000908,-0.000324
64.070034,-0.214801,-0.260002,9.807911,0.001415,0.005214,-0.001983
64.079940,-0.236519,-0.240363,9.787472,-0.003068,0.000971,-0.004081
64.089801,-0.229285,-0.240083,9.787439,0.000049,0.000200,0.001809
64.099706,-0.242029,-0.250110,9.787357,0.002176,-0.002382,0.004339
64.109574,-0.241770,-0.262905,9.786234,0.001481,-0.001496,0.000250
64.119489,-0.243341,-0.254073,9.777883,0.001828,0.000851,0.000682
64.129348,-0.238435,-0.238089,9.772354,0.000758,0.001789,-0.000708
64.139243,-0.242884,-0.241849,9.791929,0.000265,0.003619,0.001220
64.149121,-0.246355,-0.267516,9.799905,0.001237,0.004475,-0.003089
64.159025,-0.233271,-0.267280,9.784282,0.004420,-0.000149,-0.001408
64.168896,-0.234564,-0.265838,9.773319,0.002367,0.003980,0.001078
64.178798,-0.237946,-0.258163,9.774012,-0.000515,0.001530,0.001277
64.188668,-0.249171,-0.270133,9.784738,0.003391,-0.003113,0.000264
64.198572,-0.248096,-0.259049,9.789244,0.003440,-0.000531,-0.000944
64.208440,-0.229891,-0.233892,9.806566,0.000738,-0.001949,-0.001113
64.218337,-0.237810,-0.256653,9.810054,-0.001195,0.003985,0.001109
64.228211,-0.254928,-0.270555,9.786178,-0.002515,0.003294,0.001145
64.238117,-0.257772,-0.268194,9.790826,-0.000529,0.002973,-0.004724
64.247990,-0.245767,-0.268583,9.795575,0.004287,-0.004136,0.002058
64.257880,-0.238610,-0.265689,9.773397,-0.000630,-0.003419,-0.000373
64.267760,-0.246959,-0.267329,9.773002,-0.003619,0.001198,0.004691
64.277663,-0.251866,-0.271141,9.788751,0.000267,0.004020,-0.003192
64.287538,-0.247752,-0.259652,9.773901,0.000643,0.000745,0.001643
64.297427,-0.235575,-0.254836,9.796379,0.005229,-0.000269,0.000789
64.307308,-0.235815,-0.254001,9.803564,0.002137,0.001391,0.003436
64.317213,-0.258980,-0.260109,9.795717,-0.000800,0.003284,-0.001580
64.327082,-0.247657,-0.260436,9.790212,0.002876,0.000507,0.001261
64.336977,-0.237692,-0.264955,9.789922,0.002103,-0.001402,-0.003917
64.346853,-0.236582,-0.260676,9.775533,-0.000279,0.002826,0.000491
64.356758,-0.249045,-0.242557,9.791566,0.003071,-0.000325,-0.000716
64.366632,-0.250781,-0.247042,9.806014,0.000399,-0.003767,0.002083
64.376517,-0.237549,-0.251713,9.793036,-0.001763,-0.000633,-0.000539
64.386395,-0.240787,-0.253732,9.791843,0.001292,0.001576,0.000551
64.396299,-0.243123,-0.262668,9.768040,-0.001840,0.001501,-0.001442
64.406168,-0.243256,-0.252127,9.792999,0.001298,-0.004543,0.001843
64.416062,-0.245184,-0.254015,9.785340,0.000589,0.000835,0.001638
64.425942,-0.231647,-0.251589,9.796763,-0.000109,0.000667,0.002279
64.435850,-0.239815,-0.254922,9.794776,0.001304,0.002549,0.001287
64.445715,-0.249086,-0.271569,9.790780,0.001124,0.001390,0.000954
64.455611,-0.253819,-0.261004,9.792062,-0.001221,0.003345,-0.002444
64.465489,-0.247462,-0.254225,9.789948,0.002067,-0.002712,-0.001956
64.475392,-0.243962,-0.248702,9.788914,0.000204,0.005689,0.001754
64.485260,-0.241658,-0.244514,9.787128,0.001517,0.001323,0.003271
64.495154,-0.236471,-0.250071,9.768798,0.002823,0.002109,-0.003211
64.505034,-0.254199,-0.254254,9.777566,0.001832,-0.003686,0.000238
64.514936,-0.242291,-0.246318,9.778158,0.003684,0.002032,-0.001093
64.524805,-0.244270,-0.243529,9.786035,0.000857,0.002465,0.001648
64.534706,-0.243203,-0.252455,9.800590,0.003950,0.003623,-0.000734
64.544583,-0.224191,-0.236933,9.808228,0.006100,-0.002021,-0.000212
64.554483,-0.232986,-0.229963,9.786862,0.001940,-0.003632,0.002496
64.564351,-0.239140,-0.256062,9.784629,-0.002785,0.001834,0.000575
64.574253,-0.237525,-0.258325,9.789758,0.004790,-0.003832,0.004627
64.584124,-0.232104,-0.252815,9.811033,-0.000142,0.001648,-0.000481
64.594028,-0.260095,-0.264451,9.809834,0.001095,0.000605,-0.000175
64.603898,-0.253413,-0.256149,9.796113,-0.003099,0.000151,0.001731
64.613792,-0.244032,-0.268477,9.791934,0.000000,0.000870,-0.000912
64.623670,-0.243759,-0.260980,9.798761,0.000676,0.002759,-0.000786
64.633575,-0.237197,-0.257552,9.791572,0.004262,0.002571,-0.001241
64.643446,-0.235485,-0.241332,9.784779,0.002853,0.000475,0.001578
64.653340,-0.251624,-0.241336,9.787774,-0.001102,-0.003600,0.003032
64.663216,-0.239124,-0.250593,9.801236,0.003328,0.002318,-0.000092
64.673124,-0.236445,-0.255437,9.783125,0.002220,-0.004606,0.000349
64.682999,-0.226931,-0.262997,9.781616,-0.001165,0.001879,-0.000914
64.692888,-0.213893,-0.259221,9.770315,-0.001114,0.004896,-0.003494
64.702761,-0.220061,-0.259618,9.792697,-0.001176,0.001129,-0.002808
64.712667,-0.241811,-0.258374,9.814590,-0.001522,0.003504,0.002860
64.722534,-0.243073,-0.266088,9.807665,0.002398,-0.004467,-0.003008
64.732429,-0.220995,-0.260826,9.790634,0.000122,-0.000839,0.001501
64.742308,-0.235486,-0.254267,9.785544,0.000605,-0.000851,-0.000982
64.752212,-0.258817,-0.261413,9.762567,0.001172,-0.002764,0.002812
64.762085,-0.240499,-0.256898,9.778481,0.000775,-0.002763,-0.000408
64.771977,-0.228580,-0.258565,9.784820,-0.000607,-0.000850,-0.003046
64.781859,-0.251818,-0.244823,9.813894,0.000093,0.004234,0.001005
64.791758,-0.247916,-0.247970,9.787121,0.001786,0.000284,-0.000943
64.801627,-0.246933,-0.271121,9.806900,-0.003286,0.001074,-0.000481
64.811529,-0.236956,-0.262060,9.788633,0.003223,0.001079,-0.000496
64.821402,-0.231320,-0.259505,9.765909,0.000237,0.000283,0.001050
64.831309,-0.232273,-0.262082,9.769318,0.001376,0.001453,0.001146
64.841172,-0.248026,-0.265826,9.766297,0.002736,0.003744,-0.000603
64.851067,-0.250129,-0.254990,9.781308,0.001762,-0.002028,0.001850
64.860950,-0.252862,-0.242922,9.804903,0.001146,0.001516,-0.000098
64.870854,-0.245851,-0.253305,9.787934,0.001106,-0.001349,-0.000869
64.880718,-0.253141,-0.244992,9.790389,-0.000011,-0.001797,0.000912
64.890619,-0.235289,-0.250864,9.779140,-0.001775,0.000921,-0.001329
64.900492,-0.241172,-0.252187,9.789486,0.000133,0.001452,0.003234
64.910395,-0.249808,-0.252367,9.786028,0.001175,-0.002989,-0.000722
64.920264,-0.244768,-0.243436,9.811763,-0.002837,-0.002855,-0.001426
64.930168,-0.242648,-0.244048,9.785104,0.004371,-0.000766,-0.000594
64.940037,-0.245293,-0.264741,9.790968,-0.000059,0.000033,-0.004136
64.949950,-0.246174,-0.259974,9.792534,0.001908,-0.001083,0.000789
64.959810,-0.239861,-0.250156,9.796179,0.003235,-0.000428,0.002132
64.969707,-0.240325,-0.256970,9.797371,0.002474,-0.002981,0.000395
64.979582,-0.255491,-0.258907,9.770831,-0.000025,-0.000777,-0.002210
64.989492,-0.249340,-0.277168,9.763087,-0.000062,-0.000491,0.003312
64.999356,-0.237493,-0.269953,9.772012,0.004255,0.003362,-0.004473
65.009253,-0.226738,-0.255784,9.798959,-0.002436,0.001669,-0.000275
65.019129,-0.232464,-0.263701,9.790395,-0.001365,0.000768,0.001886
65.029042,-0.232562,-0.264338,9.787780,0.001105,0.002024,0.000015
65.038903,-0.237148,-0.265332,9.786663,0.001462,0.002408,-0.001850
65.048797,-0.242735,-0.261014,9.795361,0.003315,0.002804,-0.000269
65.058676,-0.242191,-0.251348,9.789811,0.000436,0.000785,0.002948
65.068588,-0.233579,-0.257703,9.804595,-0.001024,0.000595,-0.001614
65.078448,-0.232146,-0.236835,9.805334,0.001666,-0.000781,0.001363
65.088342,-0.242450,-0.260431,9.804813,-0.002672,0.002551,-0.000243
65.098230,-0.260087,-0.260754,9.790454,0.001804,-0.002461,0.000309
65.108126,-0.253062,-0.268092,9.789566,0.002565,0.001418,-0.001413
65.117993,-0.250002,-0.258767,9.801401,-0.000808,0.005857,0.000379
65.127888,-0.266689,-0.257008,9.784628,0.004755,-0.003745,-0.000239
65.137766,-0.251361,-0.258579,9.778897,-0.000382,-0.001964,-0.005960
65.147672,-0.248582,-0.238750,9.789764,0.000763,0.003703,0.002794
65.157538,-0.238550,-0.257819,9.795551,-0.000739,-0.005334,-0.001724
65.167433,-0.229857,-0.258589,9.786899,0.000522,-0.000626,-0.000288
65.177316,-0.247057,-0.257663,9.769999,-0.000726,-0.003948,0.002004
65.187221,-0.244396,-0.259315,9.790191,0.000286,0.002718,-0.000413
65.197086,-0.240268,-0.262547,9.788013,0.000560,0.003747,0.001112
65.206979,-0.248533,-0.254234,9.802720,0.003060,-0.000845,-0.002351
65.216859,-0.258687,-0.262437,9.802472,0.001426,0.000741,-0.004216
65.226763,-0.249835,-0.232701,9.806571,-0.000748,0.001125,-0.001997
65.236640,-0.235774,-0.251781,9.784981,0.002451,-0.006653,0.002832
65.246526,-0.233628,-0.253964,9.785602,-0.000157,-0.000525,-0.000294
65.256405,-0.218497,-0.263342,9.788140,0.000320,-0.000149,0.001525
65.266309,-0.225967,-0.259554,9.795058,-0.000777,-0.000443,-0.000629
65.276176,-0.253371,-0.268384,9.797442,0.002138,0.001051,-0.002165
65.286071,-0.258729,-0.263810,9.778844,-0.003041,0.000186,-0.001037
65.295953,-0.242213,-0.258071,9.776946,0.000187,0.002400,0.001106
65.305859,-0.236647,-0.250074,9.785402,-0.001009,-0.000245,-0.000925
65.315723,-0.247919,-0.256663,9.779539,0.001233,-0.002804,-0.000439
65.325617,-0.252232,-0.267565,9.790815,0.001840,0.001240,-0.000165
65.335497,-0.236338,-0.251036,9.792517,-0.002946,-0.001309,-0.002611
65.345401,-0.229035,-0.253735,9.792205,0.001138,0.005057,-0.000284
65.355269,-0.245430,-0.249279,9.792719,0.000939,0.003153,-0.002262
65.365175,-0.228676,-0.255536,9.786680,0.001440,0.000201,-0.002392
65.375042,-0.236675,-0.268828,9.795037,-0.003496,0.002763,-0.000235
65.384949,-0.238999,-0.246524,9.787963,0.000793,-0.001927,0.001852
65.394815,-0.236561,-0.260671,9.794984,0.000166,0.004069,0.001506
65.404711,-0.247205,-0.261718,9.788644,0.002007,-0.002071,0.000259
65.414596,-0.226647,-0.255288,9.783768,0.000690,-0.002032,0.003981
65.424494,-0.226043,-0.256565,9.767457,-0.004062,0.006642,-0.003247
65.434363,-0.246701,-0.265817,9.767566,-0.000838,-0.000755,-0.002701
65.444262,-0.248785,-0.265038,9.775978,-0.001557,-0.002383,-0.000534
65.454140,-0.257365,-0.255359,9.778484,0.004565,-0.001453,0.002139
65.464041,-0.246470,-0.251833,9.779948,0.003264,-0.003038,-0.000282
65.473908,-0.232212,-0.253833,9.808121,0.001262,-0.001478,-0.002604
65.483808,-0.243641,-0.251587,9.801282,0.002283,0.004143,0.001729
65.493686,-0.258927,-0.244248,9.823103,-0.004548,-0.000789,-0.000776
65.503585,-0.257946,-0.249764,9.805684,-0.000923,0.000717,-0.001559
65.513456,-0.236125,-0.243205,9.788700,0.002149,-0.000228,0.000046
65.523349,-0.255904,-0.250020,9.773893,0.000923,-0.003875,0.000250
65.533232,-0.234093,-0.246453,9.799932,0.000001,0.000122,0.001014
65.543132,-0.237346,-0.252662,9.795358,-0.004501,-0.004646,0.003270
65.553000,-0.233574,-0.271992,9.807508,0.002384,-0.002483,-0.000043
65.562895,-0.239736,-0.259823,9.805270,-0.003049,0.002155,-0.000927
65.572779,-0.252959,-0.282971,9.785551,-0.002005,-0.003207,-0.000771
65.582677,-0.247138,-0.261141,9.815261,-0.000999,-0.001023,0.003086
65.592555,-0.242003,-0.247716,9.797209,0.001784,-0.001538,-0.001535
65.602440,-0.250188,-0.247514,9.795749,0.002159,-0.005318,-0.000346
65.612320,-0.257151,-0.246700,9.770295,0.001401,-0.000004,0.002189
65.622222,-0.248686,-0.256903,9.795408,0.000108,0.003266,0.000126
65.632093,-0.229831,-0.257629,9.785945,-0.001697,-0.001198,-0.000746
65.641986,-0.243640,-0.267203,9.789102,-0.000657,-0.000904,0.001897
65.651868,-0.231652,-0.280002,9.795630,0.000017,-0.002248,0.000302
65.661768,-0.242000,-0.267110,9.774734,0.000933,0.003156,0.000199
65.671638,-0.235233,-0.279085,9.783878,-0.000350,-0.002046,-0.002423
65.681530,-0.262470,-0.254218,9.777669,-0.000396,0.003377,-0.004252
65.691411,-0.254916,-0.245116,9.790261,0.000262,0.001031,-0.000333
65.701323,-0.234646,-0.242941,9.793977,0.001796,0.000631,0.001320
65.711181,-0.262917,-0.258364,9.799172,-0.000617,0.002051,-0.002697
65.721076,-0.265472,-0.260554,9.784630,0.003237,-0.003195,0.001615
65.730959,-0.235390,-0.267272,9.773710,0.001650,-0.001692,-0.001384
65.740861,-0.242125,-0.277622,9.782493,0.000947,0.000258,-0.006351
65.750729,-0.260776,-0.265492,9.801044,0.001111,-0.003349,0.002359
65.760629,-0.243943,-0.253880,9.801195,0.000344,0.001774,0.003438
65.770500,-0.235788,-0.247237,9.785929,0.001407,-0.000597,-0.001051
65.780404,-0.240619,-0.246278,9.768590,0.003905,-0.000282,0.000652
65.790273,-0.241682,-0.256016,9.777865,0.002581,-0.004209,0.001489
65.800167,-0.260184,-0.244410,9.798733,-0.001872,0.003310,-0.002386
65.810047,-0.258613,-0.248913,9.787431,0.001232,-0.001966,-0.000003
65.819952,-0.247528,-0.258209,9.771512,-0.003029,-0.000506,0.007732
65.829819,-0.250296,-0.250721,9.772790,0.003591,0.002739,-0.000706
65.839723,-0.244781,-0.261881,9.782541,0.001314,0.002493,-0.001553
65.849591,-0.228278,-0.254107,9.793117,-0.000905,0.001212,0.001287
65.859498,-0.247880,-0.251428,9.769825,-0.000647,0.004875,0.003081
65.869368,-0.252693,-0.241515,9.783044,-0.002367,0.003340,-0.005957
65.879262,-0.239222,-0.257200,9.789053,0.001313,0.000620,0.001068
65.889139,-0.231436,-0.269428,9.801008,-0.000653,0.001099,0.001151
65.899042,-0.247462,-0.265093,9.803881,0.000668,-0.001515,0.000360
65.908910,-0.247100,-0.247170,9.790243,0.002921,-0.003544,0.001082
65.918810,-0.243241,-0.254578,9.798894,0.000383,0.001233,-0.001393
65.928683,-0.243730,-0.248868,9.801764,-0.000813,-0.000434,-0.003391
65.938588,-0.262102,-0.256347,9.785834,0.000544,0.002670,-0.000537
65.948456,-0.247684,-0.246883,9.780258,0.004267,-0.005790,-0.000514
65.958353,-0.249125,-0.238100,9.775481,-0.001208,0.006269,0.004223
65.968230,-0.244551,-0.265986,9.783262,-0.000463,0.001942,0.002081
65.978138,-0.238698,-0.240386,9.789377,0.003975,-0.001956,-0.002487
65.988002,-0.246967,-0.241690,9.796751,-0.001482,0.001360,-0.002169
65.997897,-0.252548,-0.263674,9.784730,0.001539,-0.003896,-0.001588
66.007784,-0.227666,-0.247233,9.775768,-0.002380,-0.000028,0.002637
66.017681,-0.250198,-0.254790,9.776078,-0.001107,-0.001785,-0.002812
66.027553,-0.248349,-0.252586,9.782450,0.002385,0.002254,0.001326
66.037443,-0.227563,-0.251885,9.767163,0.001842,0.000626,0.002529
66.047323,-0.262004,-0.240491,9.761030,-0.001077,-0.000683,0.003922
66.057230,-0.255153,-0.250185,9.779734,0.002349,-0.002341,0.001488
66.067094,-0.245299,-0.257108,9.778974,-0.001432,0.002038,0.001863
66.076988,-0.254244,-0.259980,9.793295,-0.001783,0.004270,0.000709
66.086868,-0.249463,-0.256539,9.777328,-0.000258,0.002048,-0.005667
66.096772,-0.239436,-0.241336,9.769606,-0.004754,0.002662,-0.000543
66.106647,-0.233960,-0.257595,9.768242,0.000197,-0.001521,-0.002272
66.116540,-0.254548,-0.254975,9.784368,0.002065,-0.001132,-0.000075
66.126418,-0.259044,-0.262478,9.800736,0.002536,0.001135,-0.002208
66.136324,-0.236145,-0.260980,9.796266,0.001164,0.001303,-0.000398
66.146196,-0.227235,-0.269544,9.802796,0.002208,0.004870,0.002127
66.156082,-0.235253,-0.267337,9.772660,-0.001826,0.001543,-0.001158
66.165961,-0.239998,-0.248005,9.768410,0.000108,0.001965,0.003219
66.175863,-0.253090,-0.252964,9.764850,0.000912,0.002512,-0.001769
66.185732,-0.254755,-0.251593,9.767663,-0.000473,0.001087,-0.003897
66.195626,-0.241884,-0.256255,9.787933,0.001402,0.000824,0.000362
66.205505,-0.239670,-0.268588,9.784000,0.000849,0.003509,0.001674
66.215421,-0.238797,-0.257648,9.804562,0.001110,-0.001821,0.002879
66.225282,-0.237471,-0.258678,9.789327,0.001049,0.001243,-0.003074
66.235176,-0.240276,-0.252596,9.788675,0.003808,-0.003839,-0.000590
66.245055,-0.237003,-0.251426,9.784316,-0.000913,0.002906,0.002198
66.254954,-0.238757,-0.253271,9.790167,0.000835,0.003403,0.006039
66.264824,-0.228084,-0.258986,9.773525,0.000788,-0.004439,0.001331
66.274717,-0.236431,-0.252083,9.799010,-0.001620,-0.002262,0.000819
66.284596,-0.247720,-0.244429,9.803021,-0.001444,0.001017,0.001960
66.294502,-0.243743,-0.233248,9.784550,-0.001648,0.001557,0.000262
66.304368,-0.230447,-0.262110,9.783864,-0.000954,0.002522,-0.001567
66.314264,-0.224199,-0.259503,9.761213,0.001388,-0.001212,-0.002915
66.324142,-0.237414,-0.246865,9.766985,0.002165,-0.002869,0.003065
66.334047,-0.238561,-0.249461,9.774209,0.000539,0.001691,-0.002758
66.343925,-0.251922,-0.256555,9.800586,0.001427,-0.006523,0.000558
66.353812,-0.233894,-0.263909,9.778693,-0.002658,-0.003365,-0.002791
66.363688,-0.239005,-0.261312,9.788883,0.001521,-0.000583,-0.001973
66.373593,-0.245530,-0.261385,9.810207,0.002850,-0.002899,0.000169
66.383460,-0.241633,-0.261676,9.779894,-0.002750,0.001943,-0.001423
66.393355,-0.243823,-0.268248,9.786558,0.002427,-0.001035,-0.007048
66.403233,-0.236104,-0.255341,9.768788,0.001235,0.004408,0.003094
66.413138,-0.240560,-0.248643,9.771766,-0.000952,0.001738,0.001968
66.423016,-0.244936,-0.241545,9.776089,-0.000360,0.000139,0.002588
66.432902,-0.234227,-0.267095,9.797238,-0.000604,-0.002794,0.001298
66.442780,-0.254279,-0.271258,9.792728,-0.001347,0.003840,-0.001304
66.452689,-0.251489,-0.261546,9.803981,-0.000417,-0.002165,-0.001655
66.462557,-0.240753,-0.238944,9.780531,0.001664,-0.000347,0.000163
66.472447,-0.247808,-0.248288,9.777707,0.000898,0.000140,-0.000285
66.482327,-0.230596,-0.272717,9.788502,0.003835,-0.001952,0.001945
66.492239,-0.242677,-0.280116,9.773924,0.001815,0.001024,0.000818
66.502100,-0.245330,-0.255366,9.769888,-0.003088,-0.000041,0.003409
66.511995,-0.238902,-0.248231,9.793300,0.002083,-0.004541,0.002630
66.521875,-0.244369,-0.248906,9.790738,0.000866,0.000756,-0.000862
66.531779,-0.233591,-0.260894,9.796549,0.000666,-0.004885,-0.000620
66.541647,-0.248096,-0.255345,9.801153,-0.001533,0.002676,0.000307
66.551540,-0.252637,-0.229509,9.797033,0.004114,-0.002185,0.002203
66.561417,-0.240329,-0.242294,9.793584,0.000698,0.000817,-0.000739
66.571322,-0.242417,-0.255241,9.786683,0.004537,-0.003030,0.000600
66.581190,-0.247118,-0.262275,9.790021,0.000580,-0.003908,0.001858
66.591087,-0.242499,-0.235723,9.780097,-0.001672,-0.000118,0.000899
66.600967,-0.235219,-0.250666,9.784831,0.001837,-0.006895,0.006847
66.610867,-0.236349,-0.255292,9.785025,-0.001049,-0.002335,-0.000543
66.620737,-0.227568,-0.256346,9.793213,0.003772,0.000363,-0.002470
66.630641,-0.244056,-0.258720,9.776641,-0.000346,0.001637,0.003615
66.640513,-0.246277,-0.256521,9.781696,0.004834,-0.002524,0.001393
66.650418,-0.251289,-0.251967,9.793315,0.002060,-0.000686,0.000913
66.660284,-0.249383,-0.246366,9.773144,0.003150,-0.002325,0.004886
66.670184,-0.234442,-0.268992,9.784695,-0.005392,0.003719,0.000395
66.680056,-0.228242,-0.269610,9.784681,0.002224,-0.001427,-0.002783
66.689965,-0.235258,-0.252150,9.797402,0.001721,-0.002735,-0.003011
66.699836,-0.242804,-0.243833,9.774761,-0.004280,-0.001687,-0.000462
66.709723,-0.249136,-0.271993,9.764260,0.003578,-0.002176,0.001010
66.719602,-0.259150,-0.251377,9.766246,-0.000150,0.001448,0.002815
66.729511,-0.248728,-0.253724,9.793304,-0.000088,-0.001657,-0.001451
66.739379,-0.248402,-0.241161,9.792187,-0.001811,0.004848,0.001282
66.749269,-0.233175,-0.226311,9.776214,0.001301,-0.000017,-0.000027
66.759148,-0.232651,-0.244842,9.772766,-0.001442,0.000936,0.000335
66.769053,-0.248422,-0.250758,9.791883,0.001184,0.001239,0.000234
66.778919,-0.239447,-0.262494,9.785301,0.002375,0.002114,-0.000922
66.788814,-0.241639,-0.275628,9.789051,0.001515,0.001666,-0.000071
66.798693,-0.237642,-0.276707,9.784181,0.002709,-0.000204,-0.001435
66.808598,-0.238828,-0.254000,9.794014,0.002346,-0.002358,0.001178
66.818465,-0.225106,-0.266975,9.789155,0.001348,0.002439,-0.001368
66.828360,-0.252144,-0.254920,9.785220,0.000106,-0.001037,-0.001110
66.838239,-0.235035,-0.248370,9.788884,-0.001204,-0.001590,-0.000437
66.848145,-0.226422,-0.257602,9.792692,-0.003297,0.001799,0.000061
66.858010,-0.225525,-0.251104,9.778484,0.002398,0.001002,0.000888
66.867907,-0.239179,-0.258858,9.758284,-0.000004,0.000219,-0.001008
66.877786,-0.235329,-0.252971,9.762563,0.000546,0.002199,-0.001074
66.887690,-0.250979,-0.256400,9.771635,0.000971,0.003512,0.000155
66.897557,-0.249410,-0.263964,9.779676,0.001709,-0.004248,-0.000073
66.907458,-0.241272,-0.253800,9.788890,-0.000079,0.002590,0.000766
66.917330,-0.243528,-0.280296,9.791822,-0.000625,0.004817,0.000155
66.927234,-0.236253,-0.267436,9.766524,0.003089,0.004667,-0.003923
66.937104,-0.240509,-0.269185,9.794778,0.000029,-0.004553,0.002596
66.947002,-0.237469,-0.274893,9.802090,-0.000749,-0.000475,0.003141
66.956876,-0.231805,-0.260791,9.775325,0.001809,0.000040,0.002282
66.966781,-0.227506,-0.249771,9.772954,0.002996,0.001723,-0.001525
66.976648,-0.232747,-0.261106,9.774898,-0.000937,-0.003160,-0.004107
66.986543,-0.234347,-0.255957,9.779233,0.003262,0.000215,0.004752
66.996426,-0.220548,-0.251455,9.793477,-0.001077,0.000041,0.001358
67.006330,-0.235543,-0.250474,9.789855,0.007261,-0.000880,-0.000146
67.016200,-0.241420,-0.266848,9.773540,-0.003189,0.000818,0.000373
67.026091,-0.257934,-0.259169,9.792691,0.000831,-0.000131,0.002695
67.035967,-0.248930,-0.258889,9.805319,0.000739,0.000132,0.001214
67.045877,-0.233269,-0.235736,9.801092,0.002347,0.002467,0.001634
67.055740,-0.256932,-0.256172,9.791815,0.001465,0.001442,-0.004650
67.065637,-0.239908,-0.275660,9.789582,-0.000188,0.002427,0.002759
67.075515,-0.239372,-0.241861,9.796026,0.000619,-0.000379,-0.002332
67.085417,-0.237083,-0.248325,9.779584,0.001016,0.000631,0.003417
67.095288,-0.243829,-0.254663,9.791131,0.002461,-0.001761,0.002370
67.105181,-0.240271,-0.274629,9.776186,0.001301,0.002726,-0.004157
67.115060,-0.235600,-0.258525,9.783793,0.000670,-0.000460,-0.001011
67.124963,-0.257579,-0.257923,9.797398,0.003765,-0.002280,0.001010
67.134833,-0.249932,-0.262280,9.823842,-0.000178,-0.000762,-0.002047
67.144728,-0.239892,-0.260205,9.800961,0.000560,-0.000185,0.000619
67.154605,-0.242620,-0.256775,9.789110,0.000720,-0.000744,0.002007
67.164509,-0.244225,-0.251983,9.782109,-0.003620,-0.003578,-0.002867
67.174379,-0.232107,-0.261717,9.797634,-0.000983,-0.002037,-0.001857
67.184278,-0.238994,-0.264717,9.789525,0.001220,0.000603,0.003273
67.194154,-0.235949,-0.258870,9.797822,-0.000513,0.000950,-0.003203
67.204055,-0.238992,-0.250487,9.795043,-0.003317,0.002895,0.002635
67.213924,-0.244575,-0.257674,9.787020,0.003427,0.001577,-0.000693
67.223820,-0.236564,-0.249733,9.789554,0.000558,0.000381,-0.000742
67.233698,-0.238080,-0.272161,9.805194,0.002301,0.002799,0.000104
67.243610,-0.245525,-0.269353,9.795139,0.007567,-0.002729,0.001475
67.253475,-0.254244,-0.257569,9.805863,0.001004,-0.000561,0.003770
67.263364,-0.245676,-0.270726,9.766018,0.004013,0.003442,0.001246
67.273243,-0.228412,-0.251862,9.778778,-0.003049,-0.005651,0.000758
67.283147,-0.240103,-0.246276,9.780772,0.003350,0.000113,-0.001097
67.293018,-0.233332,-0.252061,9.784551,-0.001890,0.002248,-0.002392
67.302910,-0.227313,-0.257952,9.788676,0.000476,0.000384,0.001915
67.312790,-0.238262,-0.265820,9.775002,0.000282,-0.001819,0.002745
67.322693,-0.243323,-0.261280,9.775731,0.001916,0.006324,0.000084
67.332562,-0.246528,-0.241762,9.772815,-0.000039,-0.000169,-0.002399
67.342457,-0.238411,-0.257584,9.765534,0.003760,0.000156,-0.001971
67.352334,-0.223707,-0.265797,9.794698,0.002868,-0.002934,0.001413
67.362241,-0.232964,-0.262451,9.784590,0.001433,0.003739,0.003315
67.372108,-0.241523,-0.267865,9.778677,-0.000183,-0.001250,-0.002134
67.382002,-0.255656,-0.260601,9.779611,0.001238,0.004386,-0.001932
67.391885,-0.249968,-0.252931,9.782814,0.001891,-0.003223,-0.000647
67.401784,-0.251582,-0.251658,9.765226,-0.000391,-0.000951,0.002202
67.411657,-0.247519,-0.258258,9.770849,-0.000418,-0.002817,-0.001809
67.421548,-0.247395,-0.266482,9.762692,-0.001342,0.000145,0.000628
67.431426,-0.248235,-0.262912,9.771951,0.001482,-0.002041,0.001602
67.441332,-0.249410,-0.258977,9.780275,0.001530,-0.000901,-0.002469
67.451199,-0.260225,-0.251337,9.776076,0.000376,0.001837,0.001635
67.461103,-0.255879,-0.230355,9.774633,0.002990,0.001320,0.004589
67.470972,-0.241058,-0.242570,9.772613,-0.000257,-0.005289,0.003364
67.480877,-0.244936,-0.252781,9.773428,-0.003417,0.003875,-0.005042
67.490750,-0.250244,-0.262702,9.764105,0.003559,-0.003329,0.002892
67.500640,-0.239790,-0.261498,9.785148,0.001152,0.002606,-0.003912
67.510518,-0.239044,-0.253921,9.775056,0.000109,0.000488,-0.000491
67.520425,-0.239095,-0.260640,9.772311,-0.001834,-0.000275,-0.003407
67.530291,-0.252443,-0.245499,9.800995,0.000411,0.001908,0.000128
67.540188,-0.243914,-0.228062,9.790672,0.000163,-0.007433,0.001652
67.550064,-0.245060,-0.255989,9.806953,0.001631,0.000259,-0.002159
67.559968,-0.241657,-0.267892,9.782895,0.002183,-0.004208,-0.003396
67.569844,-0.239594,-0.242393,9.768616,-0.002504,-0.000036,0.000116
67.579733,-0.249275,-0.254224,9.771965,0.001291,-0.000982,-0.001170
67.589616,-0.237923,-0.253733,9.787058,0.004943,-0.002752,0.002917
67.599519,-0.239914,-0.241827,9.767931,0.003539,-0.000971,0.000403
67.609384,-0.258354,-0.254245,9.749451,-0.001086,0.003467,-0.000688
67.619277,-0.241203,-0.263916,9.776768,0.001092,0.000813,-0.007497
67.629157,-0.231527,-0.262959,9.778857,0.004317,-0.002264,0.005349
67.639065,-0.237139,-0.251321,9.788687,-0.000260,0.003864,-0.002086
67.648935,-0.243363,-0.260839,9.793210,0.002548,-0.002601,0.001912
67.658825,-0.245382,-0.267232,9.811823,-0.000429,0.002300,-0.002000
67.668711,-0.257699,-0.262774,9.771411,0.001147,-0.002281,-0.000159
67.678607,-0.228834,-0.244271,9.784212,0.003251,0.000152,-0.004508
67.688475,-0.231196,-0.251569,9.777779,0.002063,-0.001089,-0.003640
67.698369,-0.237984,-0.235947,9.785570,0.001174,-0.001580,0.001351
67.708249,-0.224847,-0.230275,9.793792,0.000324,0.003769,-0.000748
67.718154,-0.236918,-0.253554,9.793312,-0.001289,0.005100,-0.001379
67.728020,-0.236890,-0.258586,9.803992,0.002057,-0.000603,0.000602
67.737927,-0.255171,-0.246700,9.793519,-0.001702,-0.002621,0.000207
67.747793,-0.237741,-0.238251,9.782282,-0.000449,-0.001428,-0.002262
67.757708,-0.225638,-0.248761,9.785855,0.002531,-0.002537,-0.000515
67.767571,-0.227775,-0.268624,9.790998,-0.002816,0.002251,0.004150
67.777464,-0.245439,-0.245313,9.791534,0.000328,-0.000303,0.002070
67.787347,-0.247766,-0.243009,9.792999,-0.002881,0.003105,-0.000148
67.797248,-0.250415,-0.250333,9.790977,-0.002718,-0.001256,-0.001808
67.807114,-0.257314,-0.237504,9.806949,0.002651,0.002530,-0.001368
67.817009,-0.251178,-0.251285,9.786104,0.000331,0.000343,-0.000470
67.826894,-0.232527,-0.248062,9.795378,0.001403,-0.000901,-0.004080
67.836795,-0.220614,-0.254840,9.800854,0.000105,0.000034,-0.001015
67.846660,-0.217167,-0.265304,9.795559,0.000355,-0.002230,-0.003007
67.856558,-0.230323,-0.262006,9.790096,0.001979,-0.001985,-0.004186
67.866438,-0.234503,-0.255829,9.784926,0.001263,-0.000006,0.001518
67.876339,-0.229037,-0.250633,9.795344,0.000973,-0.002495,-0.002381
67.886206,-0.257778,-0.255354,9.787832,0.002041,0.000157,-0.000883
67.896101,-0.251580,-0.263132,9.783333,-0.001898,0.001068,-0.001252
67.905980,-0.238569,-0.254245,9.772067,0.003078,-0.000613,0.004247
67.915888,-0.243599,-0.242623,9.793069,0.000678,0.002262,0.002111
67.925760,-0.234677,-0.233472,9.785813,-0.001369,0.002214,0.000683
67.935648,-0.240536,-0.248767,9.782792,0.001924,-0.002178,-0.001600
67.945525,-0.244995,-0.254152,9.775091,0.002468,-0.001482,0.001002
67.955429,-0.248711,-0.248858,9.779908,0.001019,0.003050,-0.001708
67.965304,-0.260195,-0.251702,9.781274,-0.002317,0.002994,0.005855
67.975194,-0.244482,-0.242389,9.787582,0.001668,-0.002184,-0.003742
67.985071,-0.232821,-0.251826,9.793889,0.000203,0.001131,0.000856
67.994978,-0.236782,-0.244505,9.778584,-0.000123,0.004278,-0.003080
68.004843,-0.243401,-0.257932,9.779003,0.003417,-0.000003,0.000171
68.014739,-0.253125,-0.256905,9.778095,0.003318,-0.001879,0.002462
68.024616,-0.257600,-0.264809,9.782356,0.002505,-0.001256,0.003785
68.034528,-0.248364,-0.263590,9.794426,0.002596,-0.002335,0.000142
68.044388,-0.233527,-0.267052,9.808268,0.000556,0.005200,-0.001054
68.054293,-0.237516,-0.271667,9.783333,0.000213,-0.004874,0.000138
68.064164,-0.255451,-0.262090,9.801764,-0.000443,0.002055,0.002842
68.074068,-0.237372,-0.245728,9.803229,0.003164,0.001170,-0.004801
68.083934,-0.243196,-0.246792,9.796927,-0.000535,0.000560,-0.002832
68.093828,-0.243996,-0.245108,9.805604,-0.000943,0.000101,-0.000610
68.103708,-0.250955,-0.248985,9.801174,0.002108,-0.000632,0.000524
68.113611,-0.237802,-0.255861,9.778405,0.001005,-0.000216,0.002063
68.123487,-0.255548,-0.251842,9.757365,0.002868,-0.002038,-0.001216
68.133374,-0.245115,-0.249282,9.786173,-0.002829,0.001323,-0.002637
68.143256,-0.248059,-0.252471,9.783612,0.001923,-0.002460,-0.001469
68.153159,-0.230562,-0.265162,9.783747,0.000249,0.002108,-0.000902
68.163026,-0.252869,-0.249129,9.781963,0.001312,-0.002769,-0.000892
68.172921,-0.246438,-0.266076,9.786095,0.003283,0.001904,0.001592
68.182801,-0.236420,-0.255170,9.779079,-0.001186,0.003581,-0.003884
68.192708,-0.241330,-0.264245,9.790440,0.000877,-0.000003,0.001529
68.202577,-0.231249,-0.264991,9.800874,0.000439,-0.004488,0.004874
68.212467,-0.233049,-0.255894,9.800636,0.000358,0.002701,0.001397
68.222346,-0.247098,-0.252260,9.786093,0.001904,-0.001286,0.002739
68.232249,-0.237802,-0.243245,9.793806,0.001469,-0.000528,-0.000641
68.242117,-0.243123,-0.249393,9.794712,0.000400,-0.002983,0.000031
68.252012,-0.236211,-0.242506,9.789344,0.004024,-0.000242,0.000493
68.261896,-0.227277,-0.271437,9.799914,-0.002276,0.004814,0.000911
68.271796,-0.227290,-0.273021,9.795838,0.001587,0.003105,-0.000818
68.281663,-0.227679,-0.265032,9.805613,0.002524,-0.006489,-0.002401
68.291557,-0.244402,-0.257994,9.787342,0.002766,0.000497,-0.001072
68.301435,-0.250735,-0.253843,9.793519,-0.003278,0.002536,-0.000434
68.311340,-0.231813,-0.246480,9.798641,0.001828,-0.002033,-0.003121
68.321209,-0.225845,-0.251883,9.789324,-0.001837,-0.000796,-0.000334
68.331103,-0.247706,-0.238381,9.787952,0.000813,-0.002259,0.001841
68.340982,-0.240670,-0.234670,9.786454,0.001958,0.000298,0.002753
68.350886,-0.246346,-0.254345,9.777546,-0.002606,-0.000911,-0.001965
68.360754,-0.230131,-0.255397,9.794261,-0.000588,-0.000582,-0.000815
68.370649,-0.238997,-0.265148,9.813980,0.005159,-0.004082,0.003158
68.380528,-0.246651,-0.240097,9.784219,-0.000114,0.000166,0.000641
68.390432,-0.239884,-0.232673,9.777334,-0.000340,0.000979,0.000116
68.400300,-0.224049,-0.241940,9.778965,-0.003495,0.001996,0.000047
68.410195,-0.232984,-0.253161,9.773457,0.000532,-0.002568,-0.000273
68.420073,-0.247566,-0.251427,9.773485,0.004743,-0.001113,0.003102
68.429978,-0.244019,-0.248101,9.770930,0.002895,0.001560,0.001180
68.439846,-0.241280,-0.246428,9.782499,0.001111,-0.002923,-0.001411
68.449741,-0.248431,-0.270590,9.779303,-0.002472,0.003636,0.000520
68.459619,-0.244275,-0.250193,9.770184,-0.000596,-0.000235,0.000858
68.469524,-0.245932,-0.249699,9.769418,0.000578,0.000502,0.000828
68.479392,-0.245090,-0.257652,9.788645,-0.002922,0.001751,-0.002083
68.489287,-0.240334,-0.262434,9.784702,-0.000044,0.001914,0.001918
68.499165,-0.237648,-0.265465,9.789920,0.000441,-0.000207,0.000509
68.509071,-0.268813,-0.264882,9.776384,-0.001379,-0.001190,0.002796
68.518939,-0.244711,-0.269690,9.769826,0.003451,0.000579,-0.003200
68.528834,-0.245926,-0.256596,9.785597,0.000471,0.001685,-0.000074
68.538712,-0.241441,-0.257807,9.796058,-0.000434,0.003851,-0.000309
68.548615,-0.235390,-0.252032,9.798547,0.000665,-0.001516,0.001485
68.558484,-0.234400,-0.258266,9.801071,-0.002163,0.005045,0.000287
68.568379,-0.234006,-0.247022,9.782617,-0.000317,0.003532,0.002871
68.578257,-0.240278,-0.262654,9.795593,0.002378,-0.002208,0.002862
68.588161,-0.250383,-0.267121,9.799343,-0.000534,0.000243,-0.002004
68.598030,-0.243760,-0.240908,9.803728,-0.000067,0.000741,0.000718
68.607925,-0.233600,-0.241962,9.805632,-0.000012,-0.001082,0.000806
68.617803,-0.241838,-0.244358,9.791772,0.002268,0.002388,0.003519
68.627707,-0.240587,-0.274886,9.782360,0.000693,-0.001816,-0.000867
68.637576,-0.233633,-0.275563,9.776471,0.002813,0.002496,-0.000033
68.647471,-0.236313,-0.256224,9.805098,-0.001895,-0.002117,-0.004235
68.657349,-0.242048,-0.250175,9.781800,-0.000026,0.004514,-0.001493
68.667253,-0.240633,-0.264673,9.776510,0.003712,0.000941,0.000790
68.677122,-0.226743,-0.244785,9.780212,0.001716,0.002544,0.000299
68.687017,-0.249385,-0.255923,9.801754,0.000028,0.002439,0.000929
68.696895,-0.249869,-0.253561,9.786374,0.002026,-0.001856,0.002004
68.706799,-0.238672,-0.242520,9.801917,0.000150,0.000255,-0.003525
68.716667,-0.245610,-0.240069,9.778522,0.001368,-0.004480,0.003529
68.726562,-0.247805,-0.247721,9.770525,-0.003013,-0.002846,-0.002927
68.736440,-0.241291,-0.251667,9.774081,0.003687,0.000736,-0.002737
68.746345,-0.239045,-0.257028,9.780830,0.003409,-0.001038,0.000152
68.756214,-0.246645,-0.251580,9.781417,0.000453,-0.002096,0.000201
68.766108,-0.240813,-0.261783,9.794091,0.000099,0.001429,-0.001837
68.775987,-0.240115,-0.250007,9.799470,0.002463,0.003836,0.000744
68.785891,-0.241430,-0.275752,9.788649,-0.000282,0.003720,-0.000258
68.795759,-0.224101,-0.257903,9.790152,0.000296,-0.000114,-0.002515
68.805654,-0.236808,-0.235390,9.800902,0.002391,-0.003537,0.001587
68.815532,-0.236812,-0.244034,9.805187,0.003214,-0.001078,0.002428
68.825437,-0.242991,-0.267121,9.790622,0.000818,-0.001695,0.004645
68.835305,-0.245224,-0.257436,9.805656,0.002637,0.000383,-0.001118
68.845200,-0.225105,-0.260708,9.747783,0.000037,0.003323,0.004140
68.855078,-0.239835,-0.244089,9.752819,-0.001509,0.000243,-0.001727
68.864982,-0.247491,-0.254876,9.803212,0.003976,0.000974,-0.001483
68.874851,-0.233472,-0.252067,9.780507,-0.000379,0.001861,0.003938
68.884746,-0.226646,-0.261506,9.773304,-0.000157,0.000029,0.000697
68.894624,-0.240755,-0.253496,9.795043,0.001651,0.000977,0.000981
68.904529,-0.257026,-0.246995,9.799606,0.003375,-0.001056,0.000271
68.914397,-0.247304,-0.259177,9.800292,0.001046,-0.002650,-0.001083
68.924292,-0.238130,-0.265634,9.780417,-0.000557,0.001141,-0.003602
68.934170,-0.223879,-0.261911,9.775772,0.002010,-0.002289,0.000510
68.944075,-0.238427,-0.248372,9.812624,0.004913,-0.004592,-0.001479
68.953943,-0.256394,-0.264428,9.793092,-0.003379,0.002731,-0.001543
68.963838,-0.247521,-0.260681,9.791721,0.000477,-0.000125,0.000876
68.973716,-0.234780,-0.263970,9.801700,0.000842,0.000292,-0.001879
68.983621,-0.234958,-0.267133,9.769704,0.001791,0.001982,0.001776
68.993489,-0.235074,-0.281661,9.795552,-0.000487,-0.003475,-0.000270
69.003384,-0.241753,-0.282534,9.770157,0.000515,0.001216,-0.001437
69.013262,-0.233768,-0.256524,9.778161,0.000023,-0.000581,-0.002579
69.023166,-0.228765,-0.235885,9.782254,0.003155,-0.000897,-0.001694
69.033036,-0.252385,-0.246037,9.785792,-0.000945,0.003351,0.001796
69.042931,-0.245378,-0.239781,9.801039,0.000166,0.000052,-0.002042
69.052809,-0.240256,-0.249322,9.800828,-0.002726,0.001083,-0.000498
69.062712,-0.251348,-0.254885,9.772829,0.002283,-0.001200,-0.003324
69.072581,-0.251724,-0.269799,9.784382,0.000065,-0.001232,0.000372
69.082475,-0.255843,-0.264362,9.768649,0.000195,-0.000527,-0.002195
69.092354,-0.235405,-0.259108,9.754849,-0.002981,0.001331,-0.000814
69.102258,-0.223469,-0.242652,9.784225,0.000729,-0.000683,-0.000408
69.112127,-0.235976,-0.251458,9.790417,-0.001641,0.002209,-0.000665
69.122022,-0.235190,-0.274548,9.784385,0.001230,-0.000673,0.001638
69.131900,-0.236803,-0.268375,9.774258,-0.000084,-0.001611,0.000332
69.141804,-0.223431,-0.268276,9.779898,0.004027,0.000767,-0.001445
69.151673,-0.213817,-0.258167,9.785135,0.002890,0.000877,-0.000632
69.161567,-0.236789,-0.254159,9.790128,0.000896,0.000316,0.001493
69.171446,-0.240944,-0.240792,9.799464,0.001001,-0.001717,0.001296
69.181350,-0.229387,-0.242436,9.789650,0.005283,0.000627,0.000109
69.191219,-0.243338,-0.253097,9.791260,0.002182,0.005916,0.001673
69.201113,-0.249771,-0.269296,9.788472,0.003939,-0.000514,-0.001767
69.210991,-0.250766,-0.271350,9.789939,0.000880,-0.000245,-0.000021
69.220896,-0.237879,-0.252333,9.802179,0.000303,-0.000958,-0.001888
69.230764,-0.241728,-0.264699,9.812119,0.000934,0.001878,0.001167
69.240660,-0.229741,-0.261281,9.797102,-0.000642,-0.000149,-0.002718
69.250537,-0.246178,-0.268006,9.787392,0.001525,-0.002319,0.001298
69.260442,-0.252049,-0.246793,9.808088,0.001241,0.004270,-0.001191
69.270310,-0.249369,-0.260271,9.785302,0.001060,0.003143,0.002589
69.280205,-0.254285,-0.257527,9.793638,0.000816,0.001255,0.003307
69.290083,-0.246934,-0.253475,9.787448,0.001892,-0.001736,-0.001002
69.299988,-0.235195,-0.246483,9.780009,0.000088,0.001306,-0.001248
69.309856,-0.238274,-0.246223,9.801131,0.002611,0.003436,-0.004748
69.319751,-0.235119,-0.253392,9.790450,-0.003223,0.000688,0.001918
69.329629,-0.254476,-0.261330,9.778021,0.002379,-0.003776,0.001044
69.339534,-0.260599,-0.237531,9.780670,0.000142,0.001941,0.002488
69.349402,-0.250462,-0.252530,9.789213,-0.001852,0.004596,-0.002807
69.359297,-0.242623,-0.254820,9.788813,0.001072,-0.002792,-0.004329
69.369175,-0.238947,-0.254247,9.775131,0.002073,-0.000326,0.001745
69.379080,-0.231706,-0.265116,9.775789,0.002493,-0.000563,-0.000675
69.388948,-0.232655,-0.267824,9.797946,-0.000977,-0.002958,0.000373
69.398843,-0.229840,-0.265989,9.806352,0.003726,-0.001718,0.003832
69.408721,-0.233482,-0.252035,9.793530,0.001920,0.002087,0.000933
69.418626,-0.245702,-0.250011,9.790676,0.001047,-0.000288,-0.003023
69.428494,-0.245002,-0.252010,9.767905,-0.000310,0.002949,-0.005453
69.438389,-0.240493,-0.263604,9.776391,-0.002325,0.001123,-0.002303
69.448267,-0.234028,-0.267327,9.775550,0.002776,0.000165,0.001624
69.458172,-0.243072,-0.259733,9.775765,-0.001488,0.002471,-0.001180
69.468040,-0.255271,-0.269988,9.790576,0.003135,-0.003386,-0.000127
69.477935,-0.246710,-0.231519,9.795718,0.000765,-0.002178,0.002986
69.487813,-0.256645,-0.246418,9.793242,-0.000132,0.001191,0.001611
69.497717,-0.252498,-0.278120,9.764855,-0.000234,-0.000440,0.000215
69.507586,-0.256913,-0.261673,9.786684,0.004580,0.001798,-0.003085
69.517481,-0.258059,-0.262690,9.802047,0.000704,-0.000163,0.001031
69.527359,-0.228133,-0.258802,9.800068,0.003662,-0.000732,0.000810
69.537263,-0.239122,-0.259292,9.831007,0.000095,-0.003307,0.003775
69.547132,-0.243494,-0.240981,9.807347,0.000320,0.004483,-0.003368
69.557027,-0.231958,-0.250562,9.769912,-0.003167,-0.000642,0.000339
69.566905,-0.238449,-0.256066,9.782529,0.001749,-0.000070,-0.000517
69.576809,-0.254146,-0.258264,9.766021,0.002485,-0.005286,0.002278
69.586678,-0.252744,-0.245375,9.780129,-0.003086,-0.000415,-0.001959
69.596572,-0.221419,-0.250906,9.776768,-0.001074,-0.000436,0.001073
69.606451,-0.235506,-0.249842,9.798674,0.002568,-0.003965,0.001869
69.616355,-0.245757,-0.244493,9.798333,-0.001877,0.001890,-0.003884
69.626223,-0.260475,-0.257607,9.786625,0.002971,-0.004761,0.000819
69.636118,-0.260665,-0.270904,9.787597,0.001156,0.003645,0.001337
69.645996,-0.239694,-0.248713,9.786934,0.002218,-0.001555,-0.000296
69.655901,-0.243261,-0.247379,9.797511,-0.000869,-0.002146,0.002581
69.665770,-0.250584,-0.255962,9.809091,-0.003208,0.001600,-0.005235
69.675664,-0.255953,-0.266758,9.781272,0.002201,0.002069,-0.000609
69.685543,-0.234330,-0.260293,9.795870,-0.000045,-0.000343,0.001778
69.695447,-0.247022,-0.231240,9.782816,-0.000083,0.004641,-0.000885
69.705315,-0.251539,-0.260360,9.786677,0.000695,0.002905,-0.004380
69.715210,-0.244322,-0.251087,9.786543,-0.003531,0.005632,0.000952
69.725088,-0.246539,-0.258887,9.759708,0.002681,-0.003132,-0.005958
69.734993,-0.248927,-0.265072,9.785657,-0.001245,0.000899,-0.001893
69.744861,-0.242887,-0.251529,9.798005,0.000343,-0.002640,0.001385
69.754756,-0.243270,-0.260822,9.785020,-0.000194,0.003201,0.002618
69.764634,-0.237962,-0.256376,9.798549,-0.001315,-0.001221,-0.006669
69.774539,-0.238938,-0.260293,9.805979,-0.002010,-0.002310,-0.002645
69.784407,-0.239343,-0.256998,9.797149,-0.000967,-0.001831,-0.005040
69.794302,-0.238032,-0.260801,9.795076,0.000239,-0.000456,-0.000119
69.804180,-0.247675,-0.264466,9.788924,-0.000573,0.006182,0.001728
69.814084,-0.229534,-0.273116,9.805737,0.000049,-0.000601,0.000188
69.823953,-0.234873,-0.251860,9.782165,-0.001282,-0.001972,0.000019
69.833848,-0.226920,-0.265340,9.765967,-0.001569,-0.000592,0.001620
69.843726,-0.239212,-0.258596,9.778673,-0.000270,0.001377,-0.001819
69.853631,-0.244740,-0.261855,9.798296,0.000243,0.001252,-0.001353
69.863499,-0.233397,-0.272212,9.813296,0.001091,-0.005512,-0.000670
69.873394,-0.246135,-0.264973,9.806868,0.000086,-0.000495,-0.002234
69.883272,-0.250385,-0.252669,9.788000,0.001063,-0.004720,0.001116
69.893176,-0.239809,-0.230432,9.781496,0.001898,-0.001137,-0.000884
69.903045,-0.248147,-0.267608,9.777764,0.002686,-0.002848,-0.000098
69.912940,-0.224811,-0.248754,9.784671,0.001286,-0.000209,-0.000020
69.922818,-0.226701,-0.257207,9.793960,-0.000280,0.000749,-0.002366
69.932722,-0.242357,-0.264565,9.779212,0.001355,0.003572,-0.001706
69.942591,-0.239243,-0.266652,9.789260,-0.000855,0.005555,-0.001102
69.952486,-0.243191,-0.259268,9.788136,-0.002643,-0.004112,-0.000299
69.962364,-0.244493,-0.264163,9.793498,-0.003242,0.001393,0.002821
69.972268,-0.261817,-0.245156,9.793544,0.002606,0.000963,-0.001523
69.982137,-0.252198,-0.258543,9.792800,-0.001091,-0.003303,0.002227
69.992032,-0.253080,-0.247600,9.773149,0.002593,0.002930,-0.001486
70.001910,-0.248446,-0.256341,9.787667,-0.002715,0.002717,-0.001102
70.011814,-0.237373,-0.249248,9.798251,0.003038,0.000360,-0.002133
70.021683,-0.241876,-0.246575,9.802458,0.001194,0.002945,0.000967
70.031577,-0.236862,-0.247658,9.802179,0.000193,0.004058,0.000649
70.041455,-0.257410,-0.245384,9.783619,0.004698,0.001866,-0.000609
70.051360,-0.249212,-0.248273,9.790209,-0.001062,-0.000318,0.002284
70.061228,-0.235034,-0.240183,9.786639,0.003073,0.001114,0.000198
70.071123,-0.227811,-0.249267,9.803787,0.001948,0.002355,-0.000223
70.081001,-0.235824,-0.256675,9.803955,-0.000087,0.001332,-0.001682
70.090907,-0.244193,-0.251296,9.787199,0.000121,-0.002800,-0.002035
70.100774,-0.262217,-0.255566,9.810189,0.000329,0.001684,0.001882
70.110670,-0.243617,-0.254581,9.813192,0.001437,0.001054,-0.001453
70.120547,-0.243609,-0.249647,9.805195,-0.002254,-0.000536,-0.003044
70.130453,-0.255614,-0.241210,9.803779,-0.003331,0.001778,0.001325
70.140322,-0.247552,-0.246887,9.789670,0.002191,0.000924,-0.000806
70.150216,-0.233681,-0.232678,9.767769,0.000913,0.002746,-0.001929
70.160094,-0.229686,-0.252953,9.794405,0.001255,0.003332,0.001257
70.169999,-0.224614,-0.274005,9.787213,0.004579,0.000449,0.000262
70.179867,-0.232100,-0.262930,9.787549,0.001770,0.000380,0.003907
70.189762,-0.252083,-0.254535,9.798064,0.002369,0.001670,-0.000700
70.199640,-0.253692,-0.242658,9.798437,0.001167,-0.002565,0.001879
70.209545,-0.245147,-0.253474,9.795335,-0.001044,0.004199,-0.004754
70.219413,-0.249875,-0.256839,9.790834,0.001265,0.004245,-0.002909
70.229308,-0.248536,-0.249318,9.802134,0.000917,0.003096,-0.003142
70.239186,-0.228633,-0.251126,9.783183,0.004199,-0.001875,0.002731
70.249091,-0.230302,-0.262107,9.767159,-0.000803,0.000139,-0.003260
70.258959,-0.237314,-0.245571,9.780495,0.001530,-0.005529,-0.003144
70.268854,-0.238552,-0.255001,9.783317,0.003577,-0.001189,-0.000576
70.278732,-0.234799,-0.256769,9.788052,0.000002,-0.001645,-0.001758
70.288636,-0.238158,-0.245752,9.791488,-0.000071,0.001570,0.000543
70.298505,-0.241299,-0.250717,9.771187,0.000521,-0.003745,0.002050
70.308400,-0.245798,-0.228038,9.766370,-0.000661,0.003173,-0.002157
70.318278,-0.219190,-0.243231,9.787204,-0.002323,0.001365,-0.002577
70.328182,-0.214204,-0.250875,9.785425,0.001447,-0.001121,0.002273
70.338051,-0.247752,-0.258587,9.779283,0.001063,0.000889,0.000076
70.347946,-0.250472,-0.243320,9.777899,0.004674,-0.001945,-0.000576
70.357824,-0.249572,-0.248493,9.772995,0.003248,0.001017,-0.001500
70.367728,-0.241694,-0.257224,9.790803,0.000313,0.000933,-0.001696
70.377597,-0.249114,-0.240881,9.791849,0.002211,-0.000216,0.000499
70.387491,-0.242270,-0.270012,9.787155,0.000577,-0.002202,-0.005942
70.397369,-0.246744,-0.263518,9.777090,0.001013,0.005286,0.000785
70.407273,-0.237640,-0.256730,9.806958,0.000725,-0.000928,0.001143
70.417142,-0.225580,-0.250825,9.809444,0.001769,0.001326,-0.003487
70.427037,-0.244181,-0.245829,9.805370,-0.001846,-0.003174,0.001096
70.436915,-0.245379,-0.257587,9.806423,0.000121,0.001686,0.000393
70.446819,-0.239508,-0.257122,9.812165,0.000635,-0.001103,-0.000980
70.456688,-0.232463,-0.256928,9.782867,0.003508,-0.000692,0.000453
70.466582,-0.225063,-0.267736,9.770007,-0.001751,0.001876,-0.003956
70.476460,-0.234127,-0.269328,9.759343,-0.001294,-0.001205,-0.003461
70.486365,-0.238278,-0.269649,9.796277,0.000239,0.001564,0.001556
70.496233,-0.238848,-0.260312,9.791339,-0.002638,0.002463,-0.001509
70.506128,-0.246318,-0.259320,9.780502,-0.000566,0.003383,-0.000343
70.516006,-0.235386,-0.260821,9.795791,-0.000499,0.000191,-0.002178
70.525911,-0.231659,-0.271817,9.814373,0.004756,-0.000272,0.000764
70.535779,-0.251467,-0.255514,9.800806,0.001204,-0.002823,-0.002391
70.545674,-0.240331,-0.253754,9.798926,0.001265,-0.000179,-0.003155
70.555552,-0.241394,-0.254798,9.812813,0.002077,-0.000723,-0.000843
70.565457,-0.236445,-0.274206,9.795004,0.001455,-0.003139,-0.002988
70.575325,-0.248769,-0.279745,9.789731,-0.003055,-0.003062,0.000531
70.585220,-0.230099,-0.256015,9.770928,0.001580,0.001116,0.000658
70.595098,-0.242920,-0.254247,9.765900,-0.000454,0.000824,0.002113
70.605003,-0.245601,-0.243874,9.781626,-0.003247,-0.000920,-0.001913
70.614871,-0.243573,-0.219502,9.773760,0.003811,-0.002353,0.002226
70.624766,-0.227390,-0.245658,9.759181,0.000625,-0.000681,0.000403
70.634644,-0.232429,-0.245714,9.777667,-0.002666,0.002883,-0.002255
70.644549,-0.245806,-0.245136,9.785452,0.003283,-0.002155,0.003050
70.654417,-0.263084,-0.249910,9.798931,-0.000220,0.002633,-0.001859
70.664312,-0.257601,-0.258724,9.784962,-0.002187,-0.001237,0.000305
70.674190,-0.241901,-0.272803,9.790504,0.001627,0.002218,0.001980
70.684094,-0.251637,-0.266127,9.802993,0.001570,-0.006535,0.001977
70.693963,-0.241308,-0.252168,9.795403,0.000206,-0.002690,0.000593
70.703858,-0.242839,-0.245339,9.805937,0.001487,-0.002763,-0.001017
70.713736,-0.240354,-0.257497,9.790779,-0.004330,0.000708,0.000284
70.723640,-0.249092,-0.253162,9.771864,0.000497,-0.001246,-0.001781
70.733509,-0.250302,-0.240515,9.781158,0.000035,0.000956,-0.002838
70.743404,-0.245257,-0.250434,9.768568,-0.004853,0.005028,-0.000182
70.753282,-0.230430,-0.254917,9.789296,0.002044,0.002640,-0.000863
70.763186,-0.230303,-0.238856,9.775560,0.002452,-0.001781,0.000799
70.773055,-0.252073,-0.242462,9.785294,-0.003462,-0.000813,-0.001605
70.782950,-0.252391,-0.251903,9.800814,0.001968,-0.003998,-0.002845
70.792828,-0.259631,-0.253373,9.794359,-0.000193,0.005304,-0.001289
70.802732,-0.252771,-0.251727,9.782934,-0.001303,-0.000044,-0.000461
70.812601,-0.248909,-0.242822,9.784396,0.000981,-0.000162,-0.000008
70.822495,-0.248529,-0.251540,9.793780,0.002934,0.003993,0.000629
70.832374,-0.243432,-0.266291,9.807354,0.006099,0.000892,-0.001167
70.842278,-0.257170,-0.257309,9.793687,0.001848,0.002798,0.000295
70.852146,-0.250232,-0.242274,9.782247,0.001942,0.001142,-0.001693
70.862041,-0.237604,-0.261039,9.793280,-0.000469,0.001946,-0.000113
70.871920,-0.224576,-0.256124,9.804230,0.001783,0.002417,-0.007822
70.881825,-0.227653,-0.257130,9.806392,-0.002375,-0.000535,-0.003134
70.891694,-0.233983,-0.257576,9.796896,0.003757,0.000737,-0.000131
70.901588,-0.240153,-0.274271,9.793742,0.002784,0.005533,0.000346
70.911466,-0.246129,-0.255492,9.794169,0.000433,0.000387,-0.002988
70.921370,-0.244811,-0.251657,9.806533,0.000217,-0.001429,-0.001334
70.931238,-0.252398,-0.258222,9.791803,0.002570,-0.001343,-0.000614
70.941133,-0.257595,-0.245018,9.788542,0.000774,0.003326,-0.002238
70.951011,-0.251564,-0.260675,9.774707,0.002096,0.005176,-0.002946
70.960916,-0.246255,-0.256129,9.789889,0.001217,-0.000954,-0.004113
70.970784,-0.233899,-0.261375,9.800412,0.001613,0.004838,-0.003181
70.980679,-0.232212,-0.245593,9.788896,0.002742,-0.002505,0.002659
70.990557,-0.219918,-0.258727,9.793124,0.001598,-0.002216,-0.001856
71.000461,-0.239994,-0.255137,9.796812,-0.000389,0.001519,-0.001389
71.010330,-0.247878,-0.272614,9.778188,-0.001249,-0.000874,0.003616
71.020225,-0.244546,-0.259133,9.794392,0.004934,-0.000542,-0.000621
71.030103,-0.231510,-0.259145,9.811408,0.002463,0.002274,0.000467
71.040008,-0.227380,-0.254298,9.794259,0.000378,-0.001198,0.000176
71.049876,-0.228732,-0.265978,9.799461,0.003259,-0.001520,-0.002529
71.059771,-0.220367,-0.242136,9.787181,0.001380,-0.002483,-0.001149
71.069649,-0.231089,-0.248222,9.796377,-0.001730,0.002191,-0.001739
71.079553,-0.243644,-0.258479,9.802480,0.001614,0.000293,-0.004976
71.089422,-0.243911,-0.259509,9.781395,0.000475,-0.000242,-0.000756
71.099317,-0.231902,-0.257523,9.785960,0.001865,0.005528,0.002270
71.109195,-0.231605,-0.275169,9.802078,0.001724,0.001821,-0.000378
71.119099,-0.249361,-0.277161,9.801814,0.001046,-0.002676,0.004086
71.128968,-0.245839,-0.247211,9.783241,-0.000384,0.001401,-0.001130
71.138863,-0.240422,-0.246739,9.774232,-0.002515,-0.002003,-0.002918
71.148741,-0.242834,-0.246195,9.785491,0.001912,-0.000106,0.000463
71.158645,-0.224183,-0.237729,9.774606,-0.000733,0.002419,-0.000938
71.168514,-0.243875,-0.266314,9.793736,0.002586,0.003470,0.003053
71.178409,-0.244637,-0.265688,9.791149,0.000185,-0.001744,-0.001364
71.188286,-0.240916,-0.259278,9.794023,0.000043,0.002399,0.001234
71.198191,-0.243780,-0.245220,9.794244,-0.001196,0.002214,0.001076
71.208060,-0.255664,-0.256306,9.798408,-0.001266,-0.000126,-0.000363
71.217954,-0.253779,-0.263258,9.777335,0.004381,-0.000836,0.001011
71.227833,-0.222089,-0.272232,9.783319,0.001533,-0.003092,-0.003410
71.237737,-0.210243,-0.248661,9.796048,0.003690,0.000431,0.000754
71.247606,-0.235738,-0.249346,9.800505,0.001509,-0.000722,-0.001463
71.257500,-0.246106,-0.237093,9.795201,-0.001282,-0.002918,-0.000609
71.267378,-0.242285,-0.257562,9.779220,-0.000361,-0.000856,-0.001786
71.277283,-0.266505,-0.268167,9.769624,0.000855,-0.003603,0.002039
71.287151,-0.260856,-0.257299,9.783895,0.001211,-0.003803,0.001853
71.297046,-0.236064,-0.255570,9.784227,-0.001866,0.003629,-0.000080
71.306924,-0.244081,-0.256422,9.782706,0.003494,-0.000028,0.002439
71.316829,-0.238260,-0.271815,9.803313,0.001639,-0.001386,0.000736
71.326697,-0.244345,-0.259721,9.810846,-0.002271,0.002263,0.002296
71.336592,-0.253180,-0.264192,9.811218,0.003922,0.001784,-0.004274
71.346470,-0.227356,-0.278069,9.797503,-0.000078,0.001337,0.003028
71.356375,-0.234362,-0.256062,9.803373,-0.001097,0.002161,0.000703
71.366243,-0.228493,-0.257091,9.784748,0.000306,0.000880,0.000981
71.376138,-0.224886,-0.246090,9.791319,-0.005024,0.003296,-0.001699
71.386016,-0.239970,-0.242025,9.787015,0.002325,-0.002980,-0.000251
71.395920,-0.240765,-0.233623,9.785217,0.000755,0.003030,0.000582
71.405790,-0.218433,-0.254091,9.770497,0.001191,-0.002893,-0.000768
71.415685,-0.232067,-0.252697,9.759597,-0.001884,-0.000031,0.001473
71.425563,-0.255716,-0.257443,9.773792,-0.000683,-0.000644,-0.001241
71.435466,-0.266814,-0.246673,9.806213,-0.004200,0.001237,-0.001371
71.445335,-0.245257,-0.232688,9.777290,0.000464,-0.000964,-0.003098
71.455230,-0.242799,-0.260734,9.753510,-0.000495,-0.001447,0.000068
71.465108,-0.251001,-0.272504,9.784171,-0.001485,0.003714,-0.001534
71.475012,-0.258659,-0.262993,9.789805,0.000049,-0.001202,-0.003060
71.484881,-0.236671,-0.255098,9.797843,-0.000828,0.003230,-0.003054
71.494776,-0.235315,-0.256600,9.792916,0.002391,-0.000180,0.002679
71.504654,-0.247017,-0.261915,9.776455,0.000960,-0.000050,-0.000404
71.514558,-0.235264,-0.267578,9.757960,0.000289,-0.000329,0.003177
71.524427,-0.243516,-0.252483,9.777008,0.002107,0.001668,-0.001357
71.534321,-0.244581,-0.259855,9.799166,0.003663,0.000461,0.001401
71.544200,-0.245932,-0.260352,9.780617,-0.000665,-0.001488,-0.002643
71.554104,-0.237301,-0.246141,9.782426,0.006189,0.000149,-0.001226
71.563973,-0.226169,-0.250682,9.798375,-0.002295,-0.002215,-0.002246
71.573867,-0.236871,-0.246108,9.789554,-0.000765,0.002002,0.003745
71.583745,-0.245099,-0.251755,9.764810,0.003434,-0.003758,-0.000382
71.593650,-0.248318,-0.249138,9.793594,0.000064,0.003017,0.001348
71.603518,-0.264825,-0.265956,9.781222,0.001305,0.003689,-0.000198
71.613413,-0.247988,-0.262739,9.786890,0.004802,-0.000321,-0.003006
71.623291,-0.236635,-0.273646,9.797599,-0.000163,-0.004865,-0.001089
71.633196,-0.239226,-0.270406,9.797840,-0.000397,0.003484,0.000199
71.643064,-0.218361,-0.257554,9.794312,0.000680,-0.001889,0.001563
71.652959,-0.232089,-0.250031,9.776156,0.001417,-0.000226,-0.002163
71.662837,-0.244776,-0.266980,9.781016,0.000459,-0.002890,-0.004819
71.672741,-0.259521,-0.257091,9.803854,0.001162,0.001487,0.001085
71.682610,-0.252481,-0.254609,9.798999,0.000535,0.002765,-0.004931
71.692505,-0.233885,-0.266839,9.793059,-0.000187,-0.000311,0.004460
71.702383,-0.236033,-0.266310,9.784121,-0.000164,0.002046,0.002226
71.712287,-0.246860,-0.257899,9.782630,0.001150,-0.006455,0.002108
71.722156,-0.243540,-0.253831,9.782399,-0.002588,0.001948,0.001672
71.732051,-0.222440,-0.244967,9.796647,0.000944,0.001168,0.001614
71.741929,-0.234974,-0.243018,9.803890,0.001745,-0.001058,-0.001847
71.751833,-0.232018,-0.250316,9.802222,0.000110,-0.002022,-0.001246
71.761702,-0.235304,-0.283029,9.780577,0.001124,-0.001254,-0.001209
71.771597,-0.232542,-0.253975,9.803471,-0.003309,-0.003362,-0.000927
71.781475,-0.252234,-0.257006,9.800077,0.003122,0.000503,0.007586
71.791379,-0.269500,-0.258918,9.796262,-0.000108,-0.002873,0.001692
71.801248,-0.247297,-0.249943,9.787521,0.001206,0.004550,-0.001051
71.811143,-0.244301,-0.249054,9.785272,0.000452,-0.001750,-0.000115
71.821021,-0.245783,-0.259194,9.796304,0.003227,-0.002517,-0.003985
71.830925,-0.246526,-0.268957,9.779713,0.001987,-0.000094,-0.000165
71.840794,-0.240428,-0.249075,9.810256,0.000216,0.003668,0.000864
71.850688,-0.239562,-0.253694,9.794901,0.001336,-0.002781,-0.001219
71.860566,-0.246797,-0.260240,9.810413,0.001354,-0.001530,0.002762
71.870471,-0.242596,-0.259167,9.790047,0.001975,-0.002675,-0.001529
71.880339,-0.236721,-0.254483,9.788283,-0.001865,0.003662,0.002127
71.890234,-0.224071,-0.261366,9.796883,0.000763,-0.003494,-0.002251
71.900112,-0.228549,-0.271949,9.794605,0.000175,0.001986,-0.001725
71.910017,-0.236893,-0.256640,9.796017,0.000927,-0.000741,0.001473
71.919885,-0.251567,-0.263282,9.796568,-0.001758,-0.000324,-0.001948
71.929780,-0.249711,-0.255649,9.797636,0.002497,-0.003643,-0.003420
71.939658,-0.243187,-0.260424,9.819233,0.002796,0.002111,-0.001818
71.949563,-0.254820,-0.264790,9.791784,-0.001229,-0.002892,-0.000528
71.959431,-0.251054,-0.262709,9.810196,-0.001355,-0.000457,-0.000974
71.969326,-0.237543,-0.277713,9.798559,0.002141,0.001766,-0.000925
71.979204,-0.232394,-0.269511,9.779207,0.003900,-0.001239,0.000292
71.989109,-0.238744,-0.249079,9.758354,0.001570,0.004047,-0.002375
71.998977,-0.244086,-0.258421,9.764400,0.000815,-0.001641,-0.001101
72.008872,-0.230729,-0.260408,9.790480,0.001634,0.000975,-0.001547
72.018750,-0.240890,-0.260605,9.802244,-0.000024,0.000448,0.001096
72.028655,-0.243396,-0.248904,9.787959,-0.000516,-0.000764,-0.003436
72.038523,-0.242997,-0.230066,9.794940,-0.003561,0.003585,-0.001133
72.048418,-0.242498,-0.254680,9.780251,0.000654,0.003016,-0.002274
72.058296,-0.237379,-0.278092,9.783171,0.000625,-0.001002,0.001615
72.068200,-0.238777,-0.270842,9.804712,0.000566,-0.000136,-0.003077
72.078069,-0.231907,-0.248001,9.805670,0.001304,-0.002865,-0.001551
72.087964,-0.249023,-0.261458,9.802852,-0.000373,0.001237,-0.000258
72.097842,-0.249437,-0.253182,9.820437,0.000498,-0.000603,0.001277
72.107746,-0.248537,-0.261337,9.795173,-0.000179,0.000526,0.001100
72.117615,-0.250204,-0.244619,9.773289,0.001275,-0.002886,0.001819
72.127510,-0.262475,-0.270155,9.775159,-0.001763,0.006830,-0.000601
72.137387,-0.252746,-0.258816,9.774524,0.001132,-0.003630,-0.001617
72.147292,-0.240688,-0.237167,9.787654,0.000081,-0.002896,0.001714
72.157161,-0.243408,-0.259655,9.797051,0.000003,-0.001867,0.001811
72.167055,-0.249598,-0.266364,9.772949,0.000999,0.000785,-0.001582
72.176934,-0.242178,-0.247323,9.788124,-0.001116,-0.000062,-0.003601
72.186838,-0.224949,-0.256080,9.798329,0.000918,0.001786,0.000111
72.196706,-0.233366,-0.252632,9.791447,0.002949,-0.005209,-0.002407
72.206601,-0.232870,-0.246111,9.769634,-0.000570,-0.004604,-0.001586
72.216479,-0.241539,-0.244418,9.777381,-0.001811,0.000109,-0.000559
72.226384,-0.245752,-0.251026,9.798430,0.000850,-0.001953,-0.000024
72.236252,-0.251574,-0.276559,9.798525,-0.005101,0.002200,-0.001884
72.246147,-0.252380,-0.265401,9.795363,0.003111,-0.002802,0.002418
72.256025,-0.237287,-0.268004,9.790966,0.001729,-0.003284,-0.000229
72.265930,-0.227080,-0.251536,9.782882,-0.000886,0.002120,-0.001698
72.275798,-0.236754,-0.248001,9.794321,0.005548,0.001955,0.004356
72.285693,-0.236746,-0.248403,9.803082,-0.003690,-0.003526,-0.001722
72.295571,-0.232502,-0.255774,9.800141,0.001221,-0.003256,0.004281
72.305475,-0.234028,-0.255391,9.801529,0.002422,-0.001095,0.001229
72.315344,-0.243671,-0.252385,9.767478,0.002134,0.001993,0.000730
72.325239,-0.236299,-0.248656,9.793181,-0.001149,-0.001849,0.000849
72.335117,-0.236430,-0.237090,9.796891,-0.000380,0.000633,0.001878
72.345021,-0.234782,-0.245797,9.790591,0.000487,-0.003927,0.000313
72.354890,-0.226343,-0.252507,9.778095,0.003534,0.003435,-0.000307
72.364785,-0.225259,-0.240676,9.772857,-0.000797,-0.000621,0.000432
72.374663,-0.244371,-0.226543,9.792969,0.001622,-0.005025,-0.000544
72.384567,-0.242722,-0.247215,9.799481,-0.000402,-0.000223,0.002267
72.394436,-0.239684,-0.262322,9.807738,0.003124,-0.000767,-0.000096
72.404331,-0.239418,-0.263414,9.789337,0.001304,0.000282,0.001076
72.414209,-0.238060,-0.268131,9.783139,0.001886,-0.000530,0.001805
72.424113,-0.247429,-0.271825,9.793866,0.000205,-0.001621,-0.001312
72.433982,-0.250904,-0.256982,9.808154,0.000690,0.002181,0.000267
72.443877,-0.264249,-0.248848,9.796258,-0.001625,-0.000279,-0.000694
72.453755,-0.250720,-0.257641,9.789233,0.001475,0.000581,0.000921
72.463660,-0.231019,-0.259923,9.784800,0.000157,0.000858,-0.005835
72.473528,-0.229949,-0.259317,9.778513,-0.002459,0.001453,-0.003175
72.483423,-0.245119,-0.240760,9.795411,0.003390,0.003004,-0.003550
72.493300,-0.234229,-0.242778,9.790221,0.001071,-0.000562,0.001151
72.503206,-0.251016,-0.248992,9.795423,0.000820,-0.002139,0.000898
72.513074,-0.238916,-0.273341,9.791219,0.004603,-0.001789,-0.001023
72.522970,-0.239824,-0.270035,9.781910,-0.001550,0.004749,-0.001498
72.532847,-0.245131,-0.267901,9.784229,-0.000664,0.002172,0.002627
72.542752,-0.249766,-0.253276,9.772826,-0.000665,-0.002229,-0.000267
72.552620,-0.240337,-0.240495,9.775624,0.001713,0.001480,-0.001241
72.562516,-0.240347,-0.261939,9.803290,0.002197,-0.002177,-0.001268
72.572395,-0.248658,-0.251611,9.807437,0.000923,0.002230,0.000977
72.582298,-0.237386,-0.262816,9.800006,0.001881,0.000048,0.002694
72.592166,-0.237999,-0.259828,9.795850,0.001261,0.001576,-0.001898
72.602061,-0.239162,-0.249955,9.804791,0.001140,-0.003709,-0.003871
72.611941,-0.242416,-0.247450,9.807630,0.000802,0.003023,-0.002244
72.621845,-0.229696,-0.250058,9.805023,0.002285,-0.003420,0.001947
72.631712,-0.235436,-0.261406,9.798498,0.002178,0.000922,-0.001031
72.641607,-0.249902,-0.271112,9.789608,-0.001396,0.002766,-0.002593
72.651485,-0.257793,-0.256995,9.800007,-0.000629,0.000688,-0.001666
72.661390,-0.239896,-0.249248,9.784415,0.000274,-0.004234,0.004400
72.671259,-0.238651,-0.247713,9.779395,0.002821,-0.002013,0.005256
72.681153,-0.234729,-0.239446,9.772114,0.000333,0.002198,0.003332
72.691031,-0.236741,-0.245417,9.775605,0.000750,-0.002711,0.002258
72.700935,-0.242099,-0.260254,9.790412,-0.002416,0.004532,-0.003508
72.710804,-0.253227,-0.275396,9.800731,0.001763,-0.000247,0.001986
72.720700,-0.250052,-0.266967,9.796051,0.001459,-0.000727,-0.001613
72.730577,-0.231303,-0.261247,9.784959,0.004407,0.000345,-0.002231
72.740481,-0.227424,-0.260957,9.808089,0.001956,0.000086,0.001006
72.750349,-0.239818,-0.269592,9.778250,0.001280,-0.003278,0.002171
72.760244,-0.253100,-0.271310,9.774119,0.002017,-0.000830,-0.001131
72.770122,-0.257590,-0.271629,9.785010,0.002445,0.003198,0.001816
72.780026,-0.260270,-0.249601,9.778994,0.000375,-0.006861,-0.001795
72.789895,-0.240749,-0.242549,9.787900,0.003354,0.001132,-0.002738
72.799789,-0.223792,-0.255695,9.780824,-0.001653,0.003083,-0.002858
72.809668,-0.234193,-0.251290,9.779789,0.000235,0.000619,-0.000917
72.819572,-0.236281,-0.241419,9.777829,0.002559,0.000075,-0.000576
72.829440,-0.246043,-0.260964,9.778879,0.001763,-0.001313,0.000972
72.839335,-0.248852,-0.261467,9.795122,-0.002845,-0.002243,-0.001595
72.849213,-0.230716,-0.248618,9.815292,-0.001105,0.003188,-0.001822
72.859118,-0.243310,-0.236171,9.786898,-0.002772,0.000362,-0.001336
72.868987,-0.259898,-0.255430,9.807174,0.004708,-0.001368,0.003256
72.878881,-0.250212,-0.268764,9.782557,0.000195,-0.002965,-0.002127
72.888759,-0.231854,-0.265104,9.783139,0.000864,0.001635,0.000901
72.898664,-0.254397,-0.267419,9.788630,-0.001742,0.001699,0.000393
72.908532,-0.249619,-0.251157,9.818867,0.001381,-0.001699,0.002470
72.918427,-0.236199,-0.236897,9.809793,0.000494,0.000222,0.000559
72.928305,-0.242924,-0.249580,9.789492,0.000108,-0.000551,-0.003436
72.938209,-0.229150,-0.253372,9.779217,0.000501,-0.001181,-0.000979
72.948078,-0.234793,-0.259033,9.772374,-0.001055,0.002039,-0.000984
72.957973,-0.240040,-0.253485,9.783385,-0.000595,0.000466,0.002144
72.967851,-0.241498,-0.248651,9.795860,-0.000411,-0.000164,-0.003931
72.977755,-0.239553,-0.263449,9.800812,-0.000238,-0.002580,0.001019
72.987624,-0.239520,-0.264815,9.780212,0.001795,-0.002976,0.001621
72.997519,-0.239569,-0.255426,9.800681,-0.002593,-0.001955,-0.000740
73.007397,-0.237971,-0.258606,9.812257,0.001902,-0.002992,-0.000341
73.017302,-0.251273,-0.247994,9.785232,0.001534,0.002297,-0.002037
73.027170,-0.240094,-0.240412,9.779962,0.002145,-0.002380,0.003059
73.037064,-0.229533,-0.245643,9.771071,0.002600,-0.000224,0.001578
73.046943,-0.234381,-0.256901,9.788788,-0.000452,0.004263,0.000044
73.056847,-0.230933,-0.267691,9.768128,0.002025,-0.000318,0.002202
73.066716,-0.249901,-0.259695,9.794700,-0.000284,0.002984,0.001738
73.076611,-0.264069,-0.259842,9.810090,0.000557,-0.001575,-0.000247
73.086489,-0.251041,-0.251651,9.785957,0.001984,-0.002417,0.003494
73.096393,-0.244273,-0.258443,9.777515,0.001500,-0.000326,0.001962
73.106263,-0.261722,-0.265432,9.773547,-0.001418,0.002803,-0.003399
73.116156,-0.235409,-0.257760,9.797957,0.001395,-0.000223,-0.000596
73.126034,-0.226424,-0.236830,9.820240,0.002561,-0.002385,-0.000370
73.135939,-0.220066,-0.261123,9.782195,-0.002546,0.000337,-0.000371
73.145807,-0.244668,-0.260223,9.786684,0.003530,-0.000622,0.001666
73.155702,-0.243365,-0.251858,9.797218,-0.000832,0.001030,0.001237
73.165581,-0.242014,-0.265038,9.794797,0.000424,0.000315,0.002667
73.175485,-0.243842,-0.241383,9.783740,0.005925,-0.001584,0.000332
73.185353,-0.249616,-0.236390,9.781316,-0.001320,0.004830,-0.002838
73.195248,-0.250111,-0.270403,9.769218,0.001032,-0.004617,0.001545
73.205126,-0.247859,-0.278271,9.778456,-0.002144,0.003330,-0.000126
73.215030,-0.226691,-0.265041,9.784230,-0.001585,-0.000876,0.007090
73.224899,-0.238936,-0.257490,9.790876,0.000098,-0.001397,-0.001904
73.234794,-0.233782,-0.255681,9.803452,-0.000290,0.001827,-0.001519
73.244672,-0.239377,-0.243675,9.793096,0.001527,0.006351,-0.001211
73.254577,-0.244182,-0.234425,9.796696,0.001331,-0.004242,-0.001218
73.264447,-0.244932,-0.237039,9.806721,0.001149,-0.002753,0.001200
73.274341,-0.253662,-0.246099,9.796963,0.001658,-0.001503,-0.000757
73.284219,-0.240110,-0.238854,9.784063,0.001677,0.001031,-0.000438
73.294122,-0.235638,-0.240006,9.768456,0.003620,-0.002665,-0.000147
73.303991,-0.239489,-0.260865,9.777987,-0.000441,-0.000309,-0.002405
73.313891,-0.238036,-0.268790,9.770606,-0.000580,0.001924,-0.002727
73.323764,-0.244356,-0.251296,9.785167,0.000343,0.000486,-0.001868
73.333668,-0.244948,-0.263565,9.795271,0.002640,-0.002422,0.000865
73.343537,-0.248714,-0.263272,9.794646,0.001723,0.002354,0.000412
73.353431,-0.244851,-0.266552,9.807438,0.001336,0.000301,0.000161
73.363310,-0.251736,-0.244161,9.767717,-0.003759,0.002318,0.000008
73.373214,-0.248374,-0.246105,9.777566,0.000290,0.001844,0.002229
73.383083,-0.254011,-0.261405,9.790072,-0.001843,0.004366,-0.001230
73.392978,-0.241387,-0.243846,9.767008,0.002128,-0.003373,0.001521
73.402855,-0.242620,-0.254967,9.759548,0.001731,0.000898,0.001340
73.412760,-0.242901,-0.252202,9.780683,-0.003544,-0.001513,-0.000969
73.422628,-0.244337,-0.262712,9.788083,0.002584,-0.002419,0.003369
73.432523,-0.250937,-0.253748,9.795464,0.002542,0.003119,-0.001328
73.442401,-0.239872,-0.250004,9.776380,0.001733,0.000269,0.000418
73.452306,-0.218509,-0.254000,9.767357,0.002669,-0.000254,-0.003861
73.462175,-0.257981,-0.250033,9.784396,0.001394,-0.002690,-0.000836
73.472069,-0.264435,-0.249021,9.773450,0.003355,0.000466,0.001842
73.481947,-0.257698,-0.271647,9.781896,-0.000480,-0.001019,-0.000052
73.491852,-0.237844,-0.243779,9.779467,0.000095,-0.000230,-0.004084
73.501720,-0.233844,-0.244081,9.779927,-0.001335,0.000929,-0.001517
73.511615,-0.247147,-0.257819,9.792180,0.001557,-0.001518,0.002924
73.521493,-0.241621,-0.265180,9.795154,0.001010,-0.000671,0.001253
73.531398,-0.253281,-0.273662,9.803266,0.002793,-0.000868,0.001419
73.541266,-0.235075,-0.259018,9.790597,-0.001304,0.000550,0.001372
73.551161,-0.220704,-0.245655,9.778225,-0.002048,-0.000491,0.001676
73.561039,-0.245727,-0.263252,9.779452,-0.000639,0.000873,-0.000408
73.570943,-0.234998,-0.254751,9.790745,0.001530,0.004014,0.004160
73.580812,-0.241624,-0.256434,9.786820,0.000026,0.005396,-0.002448
73.590707,-0.238517,-0.276696,9.790762,-0.001742,0.000790,-0.001178
73.600585,-0.236833,-0.271971,9.763315,0.001335,-0.002093,-0.002071
73.610491,-0.233978,-0.260657,9.776890,0.000565,-0.000707,-0.001479
73.620358,-0.226656,-0.227754,9.800997,-0.003201,0.003258,-0.000540
73.630252,-0.238062,-0.242356,9.780193,-0.000034,-0.000171,-0.000797
73.640131,-0.229570,-0.245039,9.790046,-0.003335,0.000447,-0.002404
73.650035,-0.234611,-0.251439,9.773642,0.003747,0.001682,0.000896
73.659904,-0.232555,-0.246873,9.773824,-0.000346,-0.004382,0.001503
73.669798,-0.249891,-0.233107,9.786026,0.001368,-0.004555,0.000332
73.679676,-0.240950,-0.223834,9.779054,0.001000,0.000506,-0.001235
73.689581,-0.223620,-0.248275,9.788818,0.000479,-0.005146,0.003028
73.699449,-0.234481,-0.232468,9.781246,0.000485,0.000810,0.003885
73.709344,-0.237705,-0.241200,9.794204,-0.001670,0.002091,-0.005937
73.719222,-0.249055,-0.249451,9.765291,0.001728,0.003611,-0.000319
73.729127,-0.243878,-0.262326,9.775737,0.000179,-0.000343,0.003209
73.738995,-0.228834,-0.256843,9.785089,0.001045,0.005160,-0.000557
73.748890,-0.222960,-0.233479,9.780019,-0.001333,0.002757,-0.004430
73.758768,-0.235776,-0.241982,9.801682,0.001025,0.000425,0.000227
73.768672,-0.249745,-0.250348,9.801599,-0.004144,-0.001782,-0.000780
73.778542,-0.248273,-0.255136,9.794586,0.001818,-0.001653,0.000508
73.788437,-0.244260,-0.267428,9.794163,0.000281,-0.001510,0.002380
73.798315,-0.247482,-0.250059,9.794807,0.000507,0.001410,0.002889
73.808220,-0.240301,-0.234014,9.797106,0.005096,0.000937,0.000217
73.818087,-0.243192,-0.270270,9.800979,0.001765,-0.000938,0.005310
73.827982,-0.243970,-0.260202,9.809512,-0.001446,-0.005948,0.002011
73.837860,-0.220703,-0.230679,9.818010,0.004267,-0.003665,-0.002074
73.847764,-0.222185,-0.248764,9.797713,0.000249,-0.004635,-0.002949
73.857633,-0.229753,-0.258800,9.767380,0.001873,-0.001293,0.002145
73.867528,-0.242137,-0.253111,9.803071,0.001315,0.005571,0.000523
73.877406,-0.229143,-0.261861,9.803050,0.002727,0.000282,-0.001680
73.887310,-0.247103,-0.259452,9.778234,-0.002822,0.003185,-0.001099
73.897179,-0.253414,-0.256681,9.778668,0.001454,-0.002853,0.000352
73.907073,-0.244705,-0.246182,9.784521,-0.000053,0.004239,0.002481
73.916952,-0.240759,-0.254513,9.781719,0.000802,-0.003692,0.001147
73.926856,-0.245294,-0.252570,9.791438,-0.001285,0.005705,0.002632
73.936725,-0.257426,-0.269685,9.792354,-0.000737,0.002053,-0.001158
73.946619,-0.246533,-0.271909,9.793590,-0.003945,0.002852,-0.000006
73.956497,-0.234587,-0.257356,9.814546,0.002802,0.001518,0.000833
73.966402,-0.227296,-0.248268,9.815718,0.000817,0.001779,-0.002825
73.976270,-0.232440,-0.256423,9.775835,-0.001046,-0.001440,0.004411
73.986165,-0.240551,-0.263563,9.783233,0.002083,-0.002303,0.001792
73.996043,-0.235877,-0.257432,9.779508,-0.002028,-0.000075,0.000394
74.005948,-0.233931,-0.248840,9.789623,0.000057,-0.001268,-0.003380
74.015816,-0.234378,-0.250553,9.780495,0.002110,-0.002742,-0.000988
74.025711,-0.237362,-0.257493,9.777061,-0.001395,0.002788,0.000087
74.035589,-0.243402,-0.256883,9.805785,0.004016,-0.000895,0.000635
74.045494,-0.233461,-0.249589,9.796027,-0.001815,0.005025,-0.002897
74.055362,-0.250956,-0.264068,9.799548,0.000970,-0.002572,0.003716
74.065257,-0.245095,-0.268188,9.767015,0.003888,-0.000772,-0.001562
74.075135,-0.252745,-0.262798,9.776535,0.002522,0.001464,0.004022
74.085040,-0.254929,-0.262941,9.785896,0.002946,0.000621,-0.000085
74.094908,-0.238573,-0.250088,9.784176,-0.000142,-0.000665,0.000952
74.104802,-0.228829,-0.258376,9.803855,-0.000388,0.001731,0.002366
74.114681,-0.217784,-0.272402,9.812617,0.002085,0.004207,-0.002853
74.124585,-0.241866,-0.262097,9.777202,0.003636,-0.005615,-0.004585
74.134454,-0.241473,-0.267084,9.788623,0.003157,-0.003419,0.000108
74.144349,-0.240044,-0.265706,9.798260,0.003669,-0.000268,-0.000708
74.154227,-0.231339,-0.258978,9.781327,-0.000760,-0.001409,-0.002548
74.164131,-0.241699,-0.254301,9.762697,0.004278,-0.004413,-0.001555
74.174000,-0.239264,-0.254990,9.769753,0.000950,-0.001530,0.002835
74.183895,-0.219449,-0.256682,9.781371,0.002691,0.002411,-0.001828
74.193773,-0.246199,-0.270784,9.785769,0.000574,0.002649,0.002071
74.203677,-0.250912,-0.261758,9.790020,0.002862,0.001031,-0.000971
74.213546,-0.237340,-0.258559,9.799410,0.001885,-0.001753,-0.001479
74.223440,-0.231282,-0.264852,9.800602,0.001345,-0.001329,-0.002107
74.233318,-0.223268,-0.254620,9.795345,0.000986,0.003680,0.001985
74.243223,-0.242404,-0.246607,9.776594,-0.002636,0.000873,0.000925
74.253091,-0.254380,-0.256180,9.779193,0.002971,-0.003715,0.006095
74.262986,-0.252851,-0.243842,9.788480,0.000631,-0.005301,-0.001179
74.272864,-0.262936,-0.233508,9.797284,-0.000751,-0.000934,0.001653
74.282769,-0.247718,-0.261483,9.794374,-0.000372,-0.000167,0.000228
74.292637,-0.238146,-0.267628,9.790107,0.000323,0.000458,-0.000833
74.302532,-0.225736,-0.253562,9.776686,0.000227,-0.000234,-0.002986
74.312410,-0.234648,-0.248848,9.769701,-0.002666,-0.000436,0.006391
74.322314,-0.246474,-0.247247,9.788655,0.001876,-0.003325,-0.000411
74.332183,-0.243439,-0.266717,9.787063,0.004334,0.002020,-0.001376
74.342078,-0.240685,-0.266930,9.801723,0.000447,0.000911,-0.003501
74.351956,-0.248159,-0.251528,9.782544,0.001088,0.002551,-0.003160
74.361860,-0.248226,-0.273093,9.780909,0.000987,-0.002161,-0.002036
74.371729,-0.248218,-0.261376,9.767312,-0.001357,-0.002380,0.000536
74.381624,-0.235653,-0.253462,9.787359,-0.001154,0.000661,0.000939
74.391502,-0.248005,-0.257111,9.805741,0.000434,-0.000008,-0.000333
74.401406,-0.244066,-0.262703,9.782105,0.000574,0.004189,0.001072
74.411275,-0.247192,-0.250777,9.784135,-0.001607,0.000769,-0.002420
74.421169,-0.246064,-0.266184,9.811365,0.000263,-0.001200,-0.000571
74.431047,-0.231786,-0.259498,9.805354,0.000994,-0.002058,0.001829
74.440952,-0.235875,-0.269755,9.785093,-0.003243,-0.000815,-0.005485
74.450821,-0.242403,-0.240121,9.770297,-0.001035,0.002071,0.002995
74.460715,-0.225693,-0.238362,9.789711,0.003623,-0.003898,0.000283
74.470593,-0.235995,-0.255083,9.770168,-0.000657,-0.004132,-0.000062
74.480498,-0.265296,-0.256542,9.762643,0.001978,0.001383,0.002406
74.490366,-0.252052,-0.254428,9.779778,-0.000812,0.000320,0.004165
74.500261,-0.245372,-0.264154,9.796579,0.000209,-0.005155,-0.001220
74.510139,-0.227510,-0.268688,9.795568,0.001818,0.000216,0.000077
74.520043,-0.248765,-0.250749,9.780094,0.002039,0.004371,-0.000938
74.529912,-0.242461,-0.262757,9.786472,0.000847,-0.000265,0.005064
74.539807,-0.237672,-0.257599,9.779543,0.003485,0.000026,-0.002739
74.549685,-0.239135,-0.262924,9.770854,-0.000052,0.003997,0.001050
74.559590,-0.251425,-0.264095,9.799836,-0.000160,0.002008,-0.002208
74.569458,-0.251406,-0.257619,9.799842,-0.003497,-0.000498,0.005157
74.579353,-0.248105,-0.258513,9.795071,0.002711,-0.001531,-0.001293
74.589231,-0.252406,-0.250905,9.799523,0.001377,0.001408,-0.001916
74.599135,-0.238754,-0.259060,9.792705,-0.000123,0.004629,0.000428
74.609004,-0.237499,-0.269559,9.810948,0.002871,0.002546,-0.001949
74.618899,-0.251128,-0.257550,9.800216,-0.003891,-0.000176,0.000274
74.628777,-0.253276,-0.243775,9.799923,0.001203,-0.002019,-0.000371
74.638681,-0.260638,-0.254007,9.787824,-0.000564,0.004298,0.001899
74.648550,-0.245586,-0.270745,9.787756,0.002020,-0.000071,-0.000015
74.658445,-0.259638,-0.272981,9.776407,-0.001265,0.005778,0.003659
74.668323,-0.243285,-0.264324,9.759680,-0.000956,-0.000410,-0.000531
74.678227,-0.240982,-0.254828,9.786241,0.001026,0.000370,0.003648
74.688096,-0.231579,-0.259728,9.778648,0.001700,-0.003517,0.002254
74.697990,-0.230914,-0.253571,9.790361,0.001619,0.001443,-0.000727
74.707869,-0.240138,-0.255218,9.807548,0.001524,-0.003111,-0.000994
74.717773,-0.240210,-0.281473,9.782140,0.003184,-0.006556,0.002223
74.727641,-0.246515,-0.281556,9.810358,-0.001485,0.001259,0.001235
74.737536,-0.253781,-0.262361,9.785726,0.001679,0.000917,0.000738
74.747414,-0.258470,-0.264119,9.797721,0.003663,-0.002694,0.002081
74.757319,-0.243370,-0.257917,9.804831,0.003511,-0.001028,-0.000705
74.767187,-0.230362,-0.271269,9.798429,-0.000735,0.002223,-0.000395
74.777082,-0.235680,-0.267899,9.804765,0.004577,0.001327,0.004267
74.786960,-0.240305,-0.284093,9.771748,0.002868,-0.004624,0.002542
74.796864,-0.235895,-0.271032,9.770061,0.002149,-0.000712,-0.000891
74.806733,-0.238372,-0.250600,9.777374,0.000448,-0.001348,0.001943
74.816628,-0.242892,-0.230666,9.781198,-0.000605,-0.003258,-0.004029
74.826506,-0.231128,-0.239377,9.792844,-0.003338,-0.000504,0.000820
74.836413,-0.235438,-0.264167,9.780816,-0.000734,-0.000238,-0.000733
74.846279,-0.259970,-0.267113,9.773177,-0.000313,0.001296,0.000757
74.856175,-0.257210,-0.261396,9.798697,-0.001785,0.000842,-0.000007
74.866052,-0.242486,-0.260891,9.796075,0.000173,-0.001413,0.007550
74.875957,-0.252629,-0.241782,9.792759,-0.000413,0.003703,-0.001670
74.885826,-0.237547,-0.246962,9.790584,-0.003412,-0.003451,0.000872
74.895721,-0.230856,-0.265413,9.781010,-0.000009,-0.001433,-0.002166
74.905599,-0.242899,-0.263855,9.777857,-0.001007,0.002399,0.001493
74.915503,-0.266696,-0.257979,9.794469,-0.000098,0.001903,-0.001007
74.925372,-0.244036,-0.247948,9.778844,0.002303,-0.003624,0.002068
74.935274,-0.225838,-0.250393,9.790618,0.000902,-0.000334,-0.000226
74.945146,-0.240338,-0.245127,9.794972,-0.000267,-0.004196,0.001347
74.955050,-0.256052,-0.220437,9.803126,-0.001210,0.001009,0.001999
74.964920,-0.248539,-0.256708,9.779737,0.000609,0.000197,-0.000562
74.974813,-0.237970,-0.269883,9.785872,-0.002196,-0.000286,0.003577
74.984695,-0.237889,-0.252488,9.791869,-0.000223,0.002229,-0.000399
74.994595,-0.255498,-0.251424,9.788402,0.001512,-0.001783,0.001391
75.004463,-0.241561,-0.250209,9.784793,-0.003580,-0.003614,-0.000472
75.014363,-0.241900,-0.251947,9.778536,-0.000063,0.002996,-0.001922
75.024241,-0.225349,-0.257412,9.802211,-0.002088,-0.000716,0.001704
75.034142,-0.226187,-0.247744,9.763780,0.002083,-0.001974,0.002750
75.044014,-0.238411,-0.253459,9.776284,-0.000583,-0.002541,-0.002945
75.053908,-0.236271,-0.272847,9.776147,0.001574,0.000750,0.002320
75.063783,-0.250065,-0.241243,9.788143,0.000293,0.004378,-0.004106
75.073688,-0.235864,-0.265694,9.779605,-0.001060,-0.001284,-0.000431
75.083560,-0.230116,-0.266531,9.792476,0.002170,0.000855,0.000493
75.093454,-0.227959,-0.263203,9.778860,0.000280,0.000539,0.001956
75.103329,-0.247086,-0.267224,9.780092,-0.000153,0.000662,-0.003863
75.113237,-0.258999,-0.260792,9.791340,0.001913,0.000423,-0.001606
75.123103,-0.238065,-0.247431,9.810993,0.001025,-0.004162,0.000755
75.132996,-0.237930,-0.264336,9.795843,-0.000797,0.002283,-0.001699
75.142877,-0.252307,-0.260424,9.774469,-0.001493,0.003254,-0.001870
75.152778,-0.249497,-0.271637,9.796045,-0.000622,0.001282,0.002066
75.162647,-0.229583,-0.248341,9.775651,0.000619,-0.001616,0.002473
75.172546,-0.244024,-0.247751,9.789059,-0.003053,0.000895,-0.001138
75.182423,-0.233476,-0.261269,9.783653,-0.000185,-0.003134,-0.002761
75.192324,-0.222774,-0.256670,9.789812,0.000297,-0.000462,0.000416
75.202196,-0.232185,-0.258789,9.814639,0.000976,-0.002686,-0.004243
75.212089,-0.232915,-0.255157,9.796397,0.001182,0.003350,-0.002383
75.221966,-0.226122,-0.245628,9.787538,0.000107,0.004253,-0.001263
75.231872,-0.241264,-0.255761,9.790593,-0.003675,-0.002200,0.001969
75.241738,-0.247114,-0.243861,9.805761,0.002234,-0.006249,-0.000925
75.251634,-0.263603,-0.249511,9.801332,0.001593,0.003134,-0.003179
75.261512,-0.233910,-0.252814,9.789387,0.001053,0.000936,0.000756
75.271416,-0.242092,-0.257138,9.784817,0.001296,-0.000383,0.000802
75.281285,-0.249115,-0.268039,9.802183,-0.002352,0.001819,-0.000277
75.291182,-0.244350,-0.266644,9.787705,-0.003133,-0.004697,0.000299
75.301058,-0.250752,-0.258172,9.796685,-0.000541,0.001537,-0.002773
75.310962,-0.241779,-0.276955,9.788474,0.002823,-0.004070,0.000231
75.320830,-0.241608,-0.267732,9.773711,0.001207,0.002953,0.000862
75.330725,-0.238657,-0.245293,9.797813,-0.000121,0.002089,-0.000816
75.340608,-0.242473,-0.263207,9.792481,0.001780,-0.001203,0.001841
75.350515,-0.235124,-0.270482,9.762730,0.001963,0.000212,0.000729
75.360376,-0.251953,-0.262411,9.765812,-0.001706,0.002246,-0.000167
75.370271,-0.240872,-0.234071,9.770030,0.002164,0.000246,0.000844
75.380150,-0.236685,-0.261736,9.792044,0.002932,0.000807,-0.000186
75.390054,-0.251705,-0.272275,9.796692,0.000110,0.002226,-0.001815
75.399926,-0.238606,-0.262354,9.782491,0.000686,-0.000145,0.004653
75.409819,-0.222443,-0.244485,9.785815,0.000656,-0.003668,0.000600
75.419699,-0.240901,-0.266985,9.800685,-0.000033,-0.002323,-0.000024
75.429600,-0.244497,-0.262244,9.802000,0.003928,-0.001499,-0.004173
75.439472,-0.238978,-0.258171,9.802321,-0.001686,0.000804,-0.005309
75.449364,-0.248131,-0.238899,9.803344,0.004599,0.001553,-0.000158
75.459245,-0.228056,-0.256591,9.795198,-0.002900,0.002349,-0.004541
75.469145,-0.225203,-0.257971,9.810090,0.002787,-0.000718,-0.003398
75.479014,-0.227831,-0.240249,9.804029,0.000608,-0.002092,-0.003348
75.488909,-0.223339,-0.238157,9.779583,0.002746,-0.002468,-0.002282
75.498791,-0.232918,-0.236607,9.771812,0.000690,0.004651,0.002743
75.508692,-0.246221,-0.260063,9.782500,-0.000672,0.000258,0.005150
75.518560,-0.234329,-0.264030,9.779064,-0.003346,0.003261,-0.000343
75.528459,-0.242147,-0.253959,9.774169,0.003192,-0.003321,0.001793
75.538337,-0.249555,-0.260952,9.773831,-0.000510,0.001567,-0.001181
75.548237,-0.264459,-0.261814,9.802786,-0.000405,0.001474,0.002305
75.558107,-0.257014,-0.251477,9.800772,0.004850,-0.002893,-0.001897
75.568002,-0.248930,-0.261756,9.787911,-0.001614,-0.004143,0.002846
75.577878,-0.240293,-0.267912,9.791266,-0.002279,-0.000969,0.001142
75.587787,-0.238009,-0.271014,9.806284,0.002047,-0.000773,0.002653
75.597652,-0.246420,-0.260209,9.795694,0.000044,-0.003131,-0.000179
75.607547,-0.231204,-0.248305,9.783330,0.000812,0.003399,0.003074
75.617425,-0.234757,-0.231986,9.792627,-0.001072,0.001821,-0.005594
75.627331,-0.245181,-0.240910,9.775603,0.004094,0.001598,0.000857
75.637199,-0.253145,-0.263808,9.777164,-0.001794,-0.002424,-0.002730
75.647093,-0.247693,-0.252993,9.796958,-0.003067,-0.000363,-0.000958
75.656972,-0.238062,-0.269886,9.820520,-0.001322,0.001302,0.002041
75.666875,-0.243055,-0.271453,9.797573,-0.002560,-0.000316,-0.003000
75.676744,-0.248558,-0.273927,9.778214,0.003152,0.002260,0.001710
75.686638,-0.247514,-0.260487,9.786048,-0.002974,-0.006426,0.002766
75.696517,-0.241990,-0.247637,9.777601,0.001284,0.004220,-0.001709
75.706420,-0.246241,-0.252656,9.767440,0.005113,-0.007707,-0.000138
75.716289,-0.246483,-0.261628,9.794065,0.001150,0.001132,0.001754
75.726184,-0.256987,-0.245500,9.797330,0.001740,-0.001409,-0.007434
75.736062,-0.251025,-0.255430,9.807144,0.000306,-0.000839,-0.002446
75.745967,-0.231973,-0.246648,9.796900,-0.001705,0.000541,0.000600
75.755835,-0.225828,-0.259544,9.787631,0.002246,0.001335,-0.002378
75.765729,-0.244679,-0.267864,9.774318,0.002376,-0.002844,-0.000728
75.775610,-0.257200,-0.261386,9.781461,0.000227,0.000700,-0.001590
75.785513,-0.236292,-0.252439,9.793031,0.006302,-0.000719,0.002067
75.795381,-0.213780,-0.235583,9.790691,0.001222,0.001909,0.002726
75.805279,-0.250745,-0.261922,9.792079,-0.000530,0.000735,0.001099
75.815153,-0.238126,-0.259026,9.794158,-0.000474,0.000631,-0.000361
75.825058,-0.253807,-0.266591,9.795414,-0.004622,0.002144,-0.001008
75.834928,-0.251417,-0.275869,9.769582,-0.001677,0.002411,0.000092
75.844827,-0.249433,-0.261266,9.775578,0.004460,-0.003052,-0.000365
75.854699,-0.241530,-0.246951,9.821658,0.000601,0.001610,-0.002629
75.864605,-0.227528,-0.258371,9.812549,-0.001351,-0.000792,-0.001899
75.874474,-0.229294,-0.247651,9.787993,-0.004090,-0.002220,0.004187
75.884368,-0.252335,-0.256804,9.787011,0.000874,0.002650,0.000350
75.894247,-0.260899,-0.258572,9.801039,-0.001154,0.003156,-0.001628
75.904150,-0.264777,-0.251690,9.781605,0.003636,-0.008163,0.001220
75.914018,-0.242640,-0.241472,9.766018,-0.000543,0.003092,0.000449
75.923918,-0.228051,-0.273503,9.770277,-0.001650,0.001707,-0.000718
75.933791,-0.241344,-0.254356,9.786927,0.000504,-0.000679,0.000352
75.943695,-0.257887,-0.268935,9.802967,0.003832,0.001408,0.003098
75.953570,-0.242713,-0.268308,9.800618,0.002369,-0.002148,-0.002768
75.963462,-0.238607,-0.273395,9.795193,0.003734,-0.004132,0.000096
75.973343,-0.237638,-0.269825,9.788781,-0.000292,0.001624,0.003178
75.983246,-0.221962,-0.251036,9.797633,0.000515,0.003232,-0.000158
75.993111,-0.229655,-0.255090,9.776865,-0.000309,0.006643,-0.001173
76.003006,-0.246649,-0.271573,9.751306,-0.000359,-0.001666,0.002094
76.012888,-0.265313,-0.263938,9.772090,-0.001091,0.001766,0.002014
76.022792,-0.238130,-0.263986,9.800088,0.000017,-0.000769,-0.000751
76.032656,-0.234967,-0.263284,9.787003,-0.000949,-0.000024,0.000144
76.042557,-0.239604,-0.261005,9.805709,0.000785,-0.001348,-0.001383
76.052434,-0.238489,-0.261667,9.783258,0.002976,0.002382,-0.002940
76.062340,-0.226813,-0.272896,9.778334,0.000544,0.005969,0.000224
76.072203,-0.252220,-0.246797,9.781408,0.002403,0.001120,0.003923
76.082101,-0.255838,-0.237894,9.794763,-0.005202,0.002065,-0.001066
76.091979,-0.252077,-0.265733,9.776245,0.002723,0.002857,-0.000615
76.101880,-0.247263,-0.258280,9.782556,0.000898,-0.002219,-0.002413
76.111753,-0.238156,-0.237836,9.804001,-0.000617,-0.000332,0.000614
76.121646,-0.234490,-0.256091,9.788459,-0.000655,-0.000409,-0.000471
76.131522,-0.240047,-0.275491,9.779664,0.002301,0.000467,-0.000509
76.141430,-0.249610,-0.251517,9.806595,0.000492,0.005409,-0.001346
76.151294,-0.244115,-0.255332,9.791355,0.000219,0.003513,0.000831
76.161191,-0.231635,-0.250381,9.766401,0.001766,0.003193,-0.001035
76.171069,-0.238099,-0.262770,9.792131,0.000370,0.000715,0.001085
76.180972,-0.246371,-0.257445,9.801762,0.000914,0.000070,0.001784
76.190841,-0.240539,-0.266418,9.784597,0.002059,0.004372,-0.002207
76.200741,-0.241361,-0.257121,9.782238,0.003622,-0.001576,-0.001173
76.210613,-0.232013,-0.258606,9.802512,0.000770,0.005369,0.001198
76.220518,-0.246291,-0.251653,9.775327,0.003003,-0.000178,0.001504
76.230390,-0.224388,-0.260845,9.760454,0.002851,-0.002084,0.001948
76.240281,-0.226128,-0.265711,9.783911,0.000383,-0.001639,-0.003642
76.250163,-0.246336,-0.251684,9.792612,-0.002662,0.002820,-0.001406
76.260064,-0.237767,-0.249129,9.777831,0.000153,-0.002299,-0.000801
76.269933,-0.243953,-0.258831,9.780942,-0.006025,0.001725,-0.000373
76.279826,-0.237406,-0.262041,9.810031,-0.001463,-0.001774,-0.001718
76.289709,-0.227407,-0.257200,9.798070,-0.001430,0.002673,0.001421
76.299610,-0.232580,-0.275387,9.790505,0.005717,-0.000833,-0.000879
76.309477,-0.236097,-0.266204,9.811270,0.003792,-0.003907,0.001638
76.319375,-0.239319,-0.259923,9.800341,-0.000432,0.000770,-0.002362
76.329257,-0.228090,-0.260772,9.786664,-0.000543,0.001157,-0.000598
76.339160,-0.245398,-0.240050,9.781710,0.002358,-0.002823,-0.000691
76.349026,-0.251774,-0.255057,9.771737,-0.000612,0.000608,0.003380
76.358922,-0.243204,-0.270034,9.778813,-0.000946,-0.000037,-0.004121
76.368797,-0.243595,-0.253566,9.774109,0.002121,-0.003086,0.003999
76.378704,-0.234115,-0.272934,9.779098,-0.002286,-0.001166,0.001084
76.388568,-0.230250,-0.280431,9.760477,-0.001647,-0.000363,-0.001215
76.398464,-0.255709,-0.260373,9.769880,0.001403,-0.001733,-0.000612
76.408345,-0.233704,-0.262941,9.790195,0.002056,0.002311,0.003569
76.418251,-0.248291,-0.260420,9.808732,-0.000288,-0.005395,-0.000598
76.428114,-0.225569,-0.260564,9.803035,0.000049,0.002446,0.001439
76.438014,-0.225720,-0.253393,9.790490,-0.000221,-0.003133,0.001716
76.447891,-0.218935,-0.241417,9.789717,0.000375,-0.000670,0.002045
76.457793,-0.229532,-0.255762,9.792865,0.000323,0.000730,-0.003491
76.467665,-0.252186,-0.268160,9.790950,0.002396,0.001091,-0.000887
76.477556,-0.237775,-0.266997,9.780581,0.003125,0.001798,-0.001645
76.487434,-0.241834,-0.258378,9.776724,-0.000116,0.000771,0.001096
76.497337,-0.252560,-0.247217,9.791580,0.002186,0.003356,-0.000754
76.507211,-0.252452,-0.254624,9.794717,0.002362,0.001291,0.002787
76.517101,-0.246710,-0.251022,9.785642,-0.000226,0.002462,0.000791
76.526981,-0.238220,-0.257825,9.790759,0.001313,-0.001850,0.002038
76.536884,-0.248842,-0.261913,9.773616,0.000868,0.002416,0.002465
76.546755,-0.239575,-0.256394,9.786852,0.001445,-0.003173,-0.003223
76.556647,-0.224339,-0.264202,9.806074,0.000443,0.001922,0.001820
76.566526,-0.228755,-0.263791,9.784323,0.003589,0.002722,-0.001053
76.576430,-0.243352,-0.277706,9.781324,-0.001196,-0.000757,0.000800
76.586302,-0.231854,-0.276200,9.781672,-0.001560,0.003232,0.000765
76.596193,-0.250498,-0.273479,9.795761,0.000291,-0.000054,-0.002996
76.606076,-0.250042,-0.265226,9.784100,-0.001414,0.000697,-0.002531
76.615975,-0.241112,-0.271788,9.772875,0.000287,-0.001904,-0.000696
76.625845,-0.250966,-0.249309,9.776438,0.000082,0.001031,0.001776
76.635742,-0.246843,-0.263130,9.795035,-0.001280,0.002311,-0.002728
76.645617,-0.237882,-0.258852,9.809237,0.000193,-0.000369,-0.002748
76.655521,-0.236168,-0.261467,9.788981,0.000635,-0.002170,-0.000984
76.665390,-0.250995,-0.266650,9.776991,-0.000980,-0.000990,0.002285
76.675284,-0.243104,-0.270986,9.806406,0.003288,0.000832,-0.001094
76.685167,-0.231457,-0.279836,9.808913,0.003040,0.002637,0.002882
76.695073,-0.230456,-0.263071,9.801487,0.002885,-0.001015,-0.001012
76.704935,-0.238585,-0.280069,9.814516,0.000263,0.000976,-0.001166
76.714831,-0.243615,-0.261947,9.792965,0.000558,-0.005273,-0.000113
76.724713,-0.247801,-0.242131,9.777429,-0.001481,0.001823,0.000152
76.734614,-0.233777,-0.237986,9.779574,0.003452,-0.002572,-0.004430
76.744481,-0.232122,-0.247158,9.788451,-0.001320,-0.002245,0.000010
76.754376,-0.232648,-0.250231,9.794298,0.004342,-0.002578,0.000136
76.764254,-0.230967,-0.265561,9.783539,0.002059,-0.002737,0.001647
76.774162,-0.246806,-0.266970,9.786791,0.000545,0.000351,0.000256
76.784031,-0.235932,-0.269560,9.791421,0.001998,0.001469,-0.001631
76.793922,-0.232896,-0.257515,9.774838,-0.001147,-0.000126,0.000209
76.803800,-0.231524,-0.248733,9.808355,-0.001302,0.001676,-0.002231
76.813705,-0.236069,-0.248948,9.805582,0.000978,0.003957,0.002020
76.823572,-0.240217,-0.258423,9.770973,0.001590,-0.000356,-0.002077
76.833468,-0.242591,-0.256347,9.784823,0.000923,0.000785,-0.002967
76.843347,-0.243761,-0.258264,9.766544,0.001709,0.004432,-0.001924
76.853252,-0.237427,-0.251871,9.775217,0.000446,-0.003519,-0.002715
76.863119,-0.246595,-0.257634,9.770569,0.001825,-0.001815,-0.000519
76.873020,-0.250947,-0.259956,9.785282,0.000279,0.002226,-0.004533
76.882891,-0.233738,-0.250492,9.805435,-0.003667,0.001701,0.001712
76.892802,-0.232712,-0.253682,9.778966,0.001949,-0.000390,-0.002846
76.902667,-0.236576,-0.254466,9.790341,0.002131,-0.003756,0.001846
76.912567,-0.232380,-0.254553,9.818052,0.000886,-0.000756,0.001743
76.922444,-0.233624,-0.253495,9.803963,-0.004911,0.001952,-0.000541
76.932343,-0.217365,-0.264068,9.806508,0.000310,0.004640,0.003124
76.942216,-0.211696,-0.274136,9.783677,0.001671,-0.002818,0.000822
76.952112,-0.238913,-0.250289,9.774242,0.002620,-0.002843,0.001555
76.961989,-0.252565,-0.268658,9.776957,0.001700,0.002651,0.001146
76.971888,-0.235220,-0.262705,9.777300,0.001581,-0.001746,-0.002222
76.981763,-0.248775,-0.248368,9.796325,0.001687,0.000808,0.001333
76.991657,-0.247970,-0.258302,9.789316,0.000115,0.000660,-0.004168
77.001537,-0.248180,-0.237596,9.792596,-0.000330,-0.003637,0.005832
77.011441,-0.254633,-0.249171,9.783394,0.001733,-0.000119,-0.001440
77.021307,-0.249520,-0.243506,9.786516,0.000345,0.001424,-0.002139
77.031206,-0.236118,-0.275627,9.798168,0.002655,-0.001081,0.002873
77.041084,-0.241431,-0.262175,9.797123,0.000626,-0.002978,-0.000670
77.050991,-0.238293,-0.274244,9.779447,-0.001628,-0.001028,0.002690
77.060856,-0.238218,-0.267751,9.792789,0.000955,-0.003258,0.000649
77.070750,-0.239276,-0.266067,9.788756,0.001246,-0.008035,-0.000516
77.080633,-0.228584,-0.247988,9.774257,-0.000936,0.000657,-0.004068
77.090534,-0.223397,-0.256011,9.782665,-0.000194,-0.003269,0.004901
77.100402,-0.240121,-0.262955,9.796398,0.001309,0.002972,0.001052
77.110297,-0.225321,-0.271080,9.770775,0.003746,-0.000886,0.001372
77.120176,-0.229896,-0.284634,9.798199,0.000487,0.003636,-0.000504
77.130080,-0.239068,-0.265887,9.794943,-0.002002,0.003567,-0.003710
77.139952,-0.246224,-0.280013,9.788051,0.001100,0.000979,-0.000587
77.149842,-0.258245,-0.260723,9.793936,-0.000628,-0.000392,-0.005338
77.159720,-0.247673,-0.267240,9.780831,-0.000414,0.002990,-0.001315
77.169627,-0.217006,-0.271541,9.780379,0.001025,0.002353,0.000969
77.179494,-0.238678,-0.255281,9.770345,0.001614,0.002143,-0.002466
77.189388,-0.244882,-0.234932,9.789339,0.002524,-0.002751,-0.004223
77.199274,-0.230704,-0.258659,9.786893,-0.000522,0.004419,-0.004605
77.209175,-0.234427,-0.262290,9.798023,0.003897,-0.004678,-0.000337
77.219040,-0.235660,-0.259934,9.777819,0.001863,0.000179,-0.001121
77.228940,-0.251963,-0.262933,9.776665,0.001396,0.001728,-0.000291
77.238814,-0.262072,-0.276859,9.782705,0.000865,0.002653,-0.000505
77.248719,-0.255424,-0.252960,9.784363,0.000630,-0.000249,-0.001349
77.258588,-0.249148,-0.259371,9.793784,-0.001085,0.000759,-0.004589
77.268489,-0.252290,-0.271551,9.786361,0.001700,0.005118,-0.002295
77.278360,-0.254972,-0.259467,9.784985,-0.000138,-0.005574,0.000605
77.288265,-0.259178,-0.259957,9.756663,-0.002670,0.001825,0.004470
77.298139,-0.254650,-0.263553,9.783284,0.001767,0.004302,0.000053
77.308031,-0.236056,-0.271884,9.787927,-0.001518,0.004945,-0.000669
77.317910,-0.240248,-0.278268,9.793984,0.000316,-0.004657,-0.001222
77.327811,-0.237793,-0.248609,9.770633,0.000321,0.001612,0.000542
77.337682,-0.230548,-0.257734,9.793069,0.002224,-0.001645,-0.001806
77.347578,-0.240955,-0.249535,9.794874,0.001346,0.001027,0.001898
77.357454,-0.247111,-0.251002,9.779043,0.001177,-0.000224,0.001660
77.367363,-0.230275,-0.248610,9.782222,0.000821,0.007532,-0.000653
77.377229,-0.218954,-0.240703,9.785300,0.000448,-0.001517,-0.000538
77.387124,-0.226969,-0.259842,9.789510,-0.001549,0.002361,-0.001284
77.397000,-0.243817,-0.255592,9.783303,0.000666,-0.002562,-0.002661
77.406904,-0.242791,-0.253721,9.771933,-0.000616,-0.001344,-0.001898
77.416773,-0.231248,-0.267533,9.784625,0.001094,-0.003601,0.002730
77.426669,-0.234916,-0.266302,9.795011,-0.000470,-0.000279,0.000679
77.436549,-0.249207,-0.277568,9.781528,0.000921,-0.002175,0.001013
77.446452,-0.248032,-0.263447,9.768982,0.000705,0.005380,0.001195
77.456319,-0.266917,-0.249198,9.759850,-0.002699,-0.004109,-0.003092
77.466216,-0.231927,-0.258486,9.772923,0.002130,-0.000851,-0.001171
77.476092,-0.235882,-0.261491,9.780514,-0.000967,0.001351,0.003001
77.485998,-0.248968,-0.251446,9.778301,0.001555,0.003879,-0.002378
77.495866,-0.234806,-0.257902,9.791686,0.001718,-0.003394,-0.000460
77.505761,-0.243255,-0.255690,9.796206,-0.002954,-0.001929,-0.000816
77.515636,-0.251090,-0.259272,9.799753,0.001279,-0.001989,-0.003729
77.525542,-0.249754,-0.272162,9.803219,0.000528,-0.001472,0.000714
77.535408,-0.235995,-0.267202,9.780869,0.000808,-0.000786,-0.003079
77.545307,-0.236062,-0.264367,9.752183,0.002224,-0.000495,0.001576
77.555182,-0.239630,-0.247718,9.760089,-0.000866,-0.001912,-0.000840
77.565086,-0.241458,-0.266312,9.796361,0.004488,-0.003493,-0.002929
77.574954,-0.229925,-0.278974,9.798421,0.002849,-0.000826,0.001496
77.584850,-0.235275,-0.249318,9.789214,-0.001023,0.004342,0.000214
77.594728,-0.224695,-0.269228,9.793119,-0.000073,-0.000973,0.002571
77.604633,-0.228234,-0.270304,9.786544,0.000809,0.001424,-0.000469
77.614501,-0.233119,-0.256363,9.798578,0.001200,-0.002102,-0.001569
77.624396,-0.264941,-0.269683,9.769485,0.002982,-0.000472,0.000576
77.634273,-0.256468,-0.254502,9.771047,-0.000998,-0.003625,-0.001537
77.644178,-0.236338,-0.248450,9.805002,0.006622,-0.001087,-0.000714
77.654046,-0.231653,-0.252575,9.805509,0.001884,-0.000847,0.001267
77.663939,-0.245040,-0.259876,9.792929,0.001083,0.001141,-0.001900
77.673820,-0.264034,-0.237255,9.778571,0.000637,-0.000172,-0.000952
77.683724,-0.246286,-0.265276,9.778540,0.004647,-0.001685,-0.000074
77.693589,-0.224620,-0.265099,9.786874,0.005597,-0.000260,0.003236
77.703488,-0.238857,-0.265957,9.795951,-0.000641,-0.002982,0.003211
77.713365,-0.246382,-0.248299,9.787898,0.001114,-0.005085,0.000368
77.723272,-0.238911,-0.259426,9.795924,0.001636,-0.002930,0.000038
77.733139,-0.243958,-0.252841,9.801060,-0.000059,-0.003114,0.005424
77.743034,-0.234639,-0.265926,9.783030,0.004498,-0.002271,-0.002298
77.752909,-0.254989,-0.246433,9.784842,-0.000889,0.001349,0.003660
77.762817,-0.257015,-0.248626,9.778037,0.001591,0.000539,0.000016
77.772680,-0.235294,-0.250273,9.784390,0.000481,0.002211,-0.001044
77.782577,-0.224573,-0.261041,9.799409,-0.003851,-0.000633,-0.002661
77.792457,-0.248249,-0.268860,9.786816,0.001996,0.002001,-0.001530
77.802360,-0.253733,-0.258282,9.790179,0.001563,-0.001199,-0.002421
77.812228,-0.229526,-0.269415,9.791193,-0.000753,-0.000889,-0.002241
77.822121,-0.228729,-0.256537,9.794653,0.000072,-0.000087,0.000886
77.832000,-0.241346,-0.252137,9.782624,0.000638,0.000217,-0.001817
77.841910,-0.243254,-0.265373,9.783187,-0.000087,-0.001420,-0.000425
77.851772,-0.258841,-0.261724,9.818006,0.001225,-0.004223,-0.000536
77.861669,-0.243562,-0.277953,9.786838,-0.000036,0.002900,0.001484
77.871545,-0.245869,-0.259204,9.779228,0.002335,0.000883,-0.000881
77.881451,-0.249190,-0.259535,9.802345,-0.001540,-0.002532,-0.000477
77.891319,-0.242235,-0.264415,9.821582,0.000477,0.001021,-0.002279
77.901215,-0.232265,-0.245597,9.789465,0.001258,0.004351,-0.000596
77.911091,-0.248161,-0.245213,9.796773,-0.001648,-0.003820,0.000514
77.920997,-0.247745,-0.252171,9.784903,0.001781,-0.000192,-0.000072
77.930864,-0.242231,-0.260745,9.799835,-0.000691,-0.001278,-0.000266
77.940759,-0.237489,-0.261493,9.790609,0.000433,-0.001646,-0.001792
77.950637,-0.254809,-0.262446,9.783889,-0.000686,-0.002782,-0.000947
77.960543,-0.240315,-0.249901,9.791905,-0.000156,0.003089,0.000966
77.970410,-0.232055,-0.256185,9.792401,-0.001210,-0.000636,0.003647
77.980305,-0.228978,-0.268343,9.794876,0.003714,-0.004948,-0.000313
77.990184,-0.238247,-0.283632,9.790894,0.000752,0.001306,-0.000783
78.000089,-0.238912,-0.252677,9.776993,0.000478,0.001914,-0.002338
78.009958,-0.234717,-0.245524,9.786257,-0.001420,0.002249,-0.001025
78.019850,-0.238688,-0.249770,9.788935,0.001214,-0.001442,-0.001529
78.029731,-0.234853,-0.245954,9.808713,0.001300,0.001387,-0.002694
78.039636,-0.223078,-0.259964,9.794562,0.000870,0.000561,-0.003447
78.049498,-0.235785,-0.256494,9.764421,0.000497,-0.001013,-0.000018
78.059397,-0.241612,-0.244149,9.774058,0.001231,0.002747,-0.006425
78.069278,-0.244630,-0.257086,9.783657,0.001461,-0.002971,0.001895
78.079177,-0.226876,-0.262496,9.779848,0.003221,0.001063,-0.002473
78.089047,-0.228536,-0.241745,9.783150,-0.002287,-0.000082,0.002968
78.098943,-0.232008,-0.263645,9.760183,0.001792,-0.001319,-0.002635
78.108817,-0.217627,-0.259924,9.787815,0.001200,0.001097,0.000310
78.118726,-0.236858,-0.263995,9.785232,0.000840,-0.001383,-0.000125
78.128589,-0.233956,-0.261948,9.790208,-0.001280,-0.001767,-0.003831
78.138486,-0.248538,-0.251791,9.771893,0.002164,0.004991,0.000347
78.148366,-0.257429,-0.255043,9.774655,-0.003483,-0.002272,-0.000223
78.158267,-0.252655,-0.271284,9.800270,-0.001557,-0.001873,-0.002569
78.168136,-0.244458,-0.259608,9.794100,0.003797,-0.003503,-0.003474
78.178026,-0.252690,-0.262345,9.777992,0.000830,-0.001549,-0.001272
78.187908,-0.235499,-0.246162,9.772605,0.002043,-0.000156,-0.002541
78.197814,-0.229505,-0.235397,9.782216,0.002634,-0.000396,0.002451
78.207677,-0.229524,-0.243400,9.798103,0.001115,0.002643,-0.001814
78.217575,-0.234733,-0.254461,9.790655,-0.000827,0.003119,0.002070
78.227453,-0.231529,-0.244318,9.779611,0.001680,0.001173,0.000017
78.237357,-0.248012,-0.256048,9.786810,0.002728,0.001685,-0.000482
78.247225,-0.245576,-0.265936,9.772194,-0.002383,-0.001482,-0.001595
78.257122,-0.249330,-0.254596,9.770181,-0.001376,0.002914,0.000560
78.266997,-0.255334,-0.258427,9.807983,0.002066,-0.000734,-0.000590
78.276903,-0.238842,-0.262809,9.799169,0.000818,0.002167,-0.001959
78.286772,-0.251817,-0.268282,9.771955,0.002248,-0.000787,0.001692
78.296666,-0.246732,-0.242707,9.781303,0.001221,-0.000791,0.001089
78.306544,-0.242835,-0.242398,9.792046,0.002414,-0.001943,0.000454
78.316450,-0.238597,-0.245128,9.805773,0.000988,0.001324,0.000251
78.326315,-0.245859,-0.247173,9.805208,0.001614,-0.001929,-0.004850
78.336211,-0.235170,-0.247627,9.803418,0.002156,-0.003479,-0.000308
78.346090,-0.232694,-0.255052,9.789391,0.000092,0.001672,0.000065
78.355994,-0.228636,-0.254125,9.781740,-0.001505,0.001368,-0.001629
78.365862,-0.252202,-0.255301,9.778771,-0.001767,0.002519,0.000178
78.375759,-0.256280,-0.258052,9.782713,0.002399,0.000283,-0.001040
78.385634,-0.250719,-0.257491,9.793389,-0.002666,-0.001762,0.003565
78.395540,-0.218166,-0.263342,9.794191,0.000833,0.004286,0.000086
78.405408,-0.237194,-0.240444,9.793477,-0.000588,0.000426,-0.005452
78.415302,-0.251805,-0.245143,9.785701,0.000000,-0.000028,0.004319
78.425181,-0.250006,-0.259570,9.788493,0.000670,-0.000076,0.001825
78.435083,-0.247375,-0.262672,9.804250,0.000596,-0.003511,-0.003131
78.444952,-0.246539,-0.271440,9.795214,-0.001549,-0.000959,-0.000867
78.454848,-0.238224,-0.256937,9.787615,0.006234,-0.003546,0.001591
78.464724,-0.238780,-0.250142,9.799734,0.002081,-0.004864,0.002875
78.474630,-0.251784,-0.270177,9.810184,-0.001365,-0.001608,-0.000936
78.484497,-0.242146,-0.256104,9.799106,-0.001210,0.001112,0.001459
78.494392,-0.235480,-0.273614,9.800015,-0.000421,0.000927,-0.000325
78.504270,-0.243030,-0.260630,9.795335,-0.002480,0.004033,0.002782
78.514174,-0.247161,-0.274883,9.782927,-0.002140,0.001421,0.001626
78.524043,-0.243674,-0.260556,9.797048,-0.003069,0.004006,0.003289
78.533942,-0.246632,-0.256103,9.776679,0.000316,-0.000491,-0.000664
78.543818,-0.231196,-0.242168,9.783348,0.001851,0.000966,0.001265
78.553722,-0.238557,-0.258292,9.780781,0.001681,0.001719,-0.000025
78.563589,-0.258325,-0.263683,9.778830,0.000052,0.001466,0.002824
78.573484,-0.244974,-0.276905,9.757028,0.002852,0.001132,0.001435
78.583366,-0.250886,-0.260190,9.774289,0.004471,0.000051,0.002096
78.593266,-0.248412,-0.243842,9.798155,-0.003156,-0.002007,-0.002929
78.603134,-0.254326,-0.262108,9.785969,0.005581,0.003226,0.004259
78.613029,-0.249301,-0.250306,9.778865,-0.000986,0.002348,0.001531
78.622907,-0.248076,-0.259304,9.772057,-0.000423,0.001551,0.003490
78.632812,-0.243029,-0.266097,9.789480,0.001468,-0.000581,-0.001653
78.642680,-0.239676,-0.268840,9.790826,0.001753,-0.000948,0.000532
78.652575,-0.251734,-0.265836,9.803292,0.003671,0.001032,-0.002385
78.662453,-0.246780,-0.245257,9.789929,-0.001378,0.003820,-0.006311
78.672357,-0.236918,-0.238942,9.799007,0.000619,-0.001573,0.000458
78.682226,-0.238958,-0.225540,9.782886,0.001267,-0.003865,-0.002562
78.692121,-0.242578,-0.238298,9.781919,0.000986,0.002687,-0.000196
78.701999,-0.250443,-0.250139,9.779660,0.003595,-0.001997,-0.001197
78.711903,-0.258937,-0.272930,9.795822,0.001780,-0.006688,0.003165
78.721772,-0.258988,-0.265782,9.768236,0.002655,-0.005575,-0.005223
78.731666,-0.248725,-0.263280,9.778949,-0.001828,0.004394,-0.001661
78.741545,-0.232435,-0.262230,9.751137,0.002757,0.000317,-0.000636
78.751449,-0.235545,-0.260267,9.777530,-0.000036,-0.000661,-0.000138
78.761317,-0.240631,-0.269882,9.780529,0.001784,0.001131,-0.005333
78.771212,-0.241831,-0.241342,9.794715,0.000620,-0.002089,0.002315
78.781090,-0.230182,-0.255932,9.763975,0.001745,-0.005062,0.001206
78.790995,-0.238046,-0.241016,9.767102,0.000989,0.001054,-0.002151
78.800863,-0.236930,-0.244503,9.777618,0.000606,-0.001629,-0.002151
78.810758,-0.234305,-0.234741,9.805672,0.000801,-0.000805,-0.001263
78.820636,-0.248918,-0.264143,9.796512,0.003964,0.000942,0.000014
78.830541,-0.239386,-0.255274,9.785050,0.003047,-0.002150,-0.001893
78.840409,-0.242093,-0.259089,9.774164,0.001608,0.000241,0.001965
78.850304,-0.254885,-0.265515,9.790991,-0.001747,-0.000524,-0.001357
78.860182,-0.252281,-0.271346,9.784880,0.000726,0.001940,0.001497
78.870087,-0.242619,-0.262453,9.781987,-0.000204,-0.001202,-0.000252
78.879955,-0.240326,-0.274016,9.781343,0.000979,-0.002373,0.000618
78.889850,-0.233901,-0.276783,9.818359,0.000503,0.000240,-0.000159
78.899728,-0.254335,-0.254810,9.802327,0.001491,-0.005916,0.001329
78.909632,-0.241417,-0.232779,9.813734,0.001916,-0.002325,-0.001570
78.919501,-0.245204,-0.253336,9.796103,0.000651,0.004916,0.001048
78.929395,-0.250156,-0.267175,9.788149,0.002414,-0.001370,-0.001507
78.939274,-0.241223,-0.257419,9.795296,0.003579,0.003068,-0.000809
78.949178,-0.242871,-0.254450,9.790500,-0.000606,0.001467,0.001312
78.959047,-0.246644,-0.263232,9.794683,0.001208,0.003207,-0.000665
78.968942,-0.240781,-0.250994,9.793995,-0.003180,-0.000112,0.000796
78.978820,-0.227829,-0.261936,9.780603,0.002223,-0.002659,-0.000312
78.988724,-0.215924,-0.270179,9.790898,-0.001619,-0.002338,-0.001988
78.998593,-0.239728,-0.263474,9.779379,-0.001184,0.001284,-0.001827
79.008487,-0.230843,-0.257826,9.783810,0.001243,0.001795,0.000085
79.018365,-0.231906,-0.254241,9.778891,0.001347,0.002767,0.002888
79.028270,-0.233205,-0.245664,9.781677,-0.002948,0.001013,-0.001103
79.038138,-0.238087,-0.256961,9.777737,0.000589,0.001788,-0.003013
79.048033,-0.250667,-0.277238,9.779844,-0.000650,0.002987,-0.000704
79.057911,-0.251309,-0.270443,9.798040,-0.001655,0.000489,-0.000446
79.067816,-0.251860,-0.276698,9.792504,0.000011,-0.002688,-0.003346
79.077684,-0.240647,-0.248563,9.790900,-0.001104,0.003743,-0.000205
79.087579,-0.243562,-0.252789,9.776427,0.001685,-0.005068,-0.001818
79.097457,-0.246559,-0.253332,9.790985,0.004088,0.000346,-0.000973
79.107362,-0.251644,-0.266883,9.770341,0.000865,-0.001922,0.000686
79.117230,-0.266219,-0.262067,9.760180,0.003377,-0.001420,0.006632
79.127125,-0.244398,-0.251396,9.773233,-0.002288,-0.000944,0.000803
79.137003,-0.240970,-0.238042,9.805074,0.000237,0.002827,0.001772
79.146907,-0.238901,-0.250030,9.785764,0.003633,-0.004538,0.000650
79.156776,-0.236539,-0.251595,9.789768,0.001915,0.000501,0.001213
79.166671,-0.240941,-0.260454,9.783730,-0.004251,-0.000114,0.000020
79.176549,-0.225789,-0.253718,9.789431,0.001301,-0.002113,-0.004558
79.186453,-0.234811,-0.254961,9.796888,0.000637,0.003898,0.001360
79.196322,-0.248640,-0.269863,9.806988,0.002635,0.004872,-0.000423
79.206217,-0.235310,-0.257970,9.775591,0.000253,0.000562,-0.000374
79.216095,-0.228121,-0.245424,9.791950,-0.002679,-0.003434,-0.000220
79.225999,-0.241163,-0.253896,9.786267,-0.001916,-0.000817,0.000663
79.235868,-0.236129,-0.263012,9.777209,0.003506,-0.000537,0.001414
79.245762,-0.243679,-0.245704,9.779157,0.001271,0.001527,0.001061
79.255640,-0.264875,-0.253263,9.799864,0.000935,-0.001767,-0.000833
79.265545,-0.252195,-0.258932,9.775828,-0.002266,-0.003304,0.001403
79.275413,-0.260865,-0.269376,9.794193,0.000143,0.004598,-0.004198
79.285308,-0.245729,-0.259781,9.771655,0.002497,-0.000372,-0.001663
79.295186,-0.221182,-0.266989,9.795318,0.002616,-0.000357,-0.001052
79.305091,-0.248900,-0.264935,9.785813,-0.003069,0.001691,-0.001339
79.314959,-0.261732,-0.251747,9.773380,0.000574,-0.001818,0.001654
79.324854,-0.240028,-0.265872,9.789243,-0.000280,0.001949,0.002144
79.334732,-0.244210,-0.248621,9.818552,0.004003,0.001476,0.001353
79.344637,-0.257174,-0.254627,9.782538,-0.001125,0.000254,0.002488
79.354505,-0.250101,-0.257793,9.807517,0.000695,0.000294,0.000959
79.364400,-0.248578,-0.261893,9.786902,-0.000169,-0.000183,0.002008
79.374278,-0.257426,-0.257060,9.783878,0.002635,-0.003180,-0.000402
79.384182,-0.248433,-0.259669,9.808955,0.002734,0.001092,-0.004286
79.394051,-0.238708,-0.254383,9.791055,-0.000432,0.003048,0.001139
79.403946,-0.245235,-0.257010,9.766378,0.000927,0.000484,0.001994
79.413824,-0.251988,-0.269693,9.753143,-0.000674,-0.003161,0.000564
79.423728,-0.240044,-0.255494,9.810463,-0.001852,-0.000972,-0.002224
79.433597,-0.239774,-0.252356,9.782178,0.002259,0.001247,0.006262
79.443492,-0.246948,-0.255791,9.790039,-0.000431,-0.003815,-0.005729
79.453370,-0.252871,-0.267158,9.771277,-0.000619,0.003706,0.001334
79.463274,-0.225848,-0.246468,9.793000,-0.000005,-0.000777,0.000380
79.473143,-0.220397,-0.263646,9.768785,0.002589,-0.001323,-0.000966
79.483037,-0.243540,-0.271496,9.776778,0.002143,-0.003514,-0.001669
79.492915,-0.216661,-0.251161,9.770222,0.002683,0.000409,-0.002861
79.502820,-0.221360,-0.259327,9.766816,0.002361,-0.003296,0.001343
79.512688,-0.235803,-0.265624,9.794251,-0.005284,0.006187,-0.001074
79.522583,-0.238622,-0.263168,9.778525,-0.001909,0.000705,0.005741
79.532461,-0.229001,-0.278977,9.778122,0.001658,0.000575,-0.002308
79.542365,-0.239983,-0.281329,9.801155,0.001709,-0.003049,0.001118
79.552234,-0.258873,-0.269177,9.789498,0.000587,0.007671,-0.005907
79.562129,-0.247390,-0.250291,9.795971,0.002573,-0.001504,0.003702
79.572007,-0.237694,-0.250995,9.794189,0.001832,-0.000652,0.002074
79.581911,-0.233616,-0.263541,9.786897,0.003149,0.002673,-0.000160
79.591780,-0.243949,-0.259283,9.785944,0.000041,-0.002058,-0.000013
79.601675,-0.245629,-0.264731,9.795524,-0.000811,0.002080,-0.001648
79.611553,-0.231386,-0.260308,9.796715,0.002576,-0.000769,-0.000614
79.621459,-0.215775,-0.246688,9.790696,-0.001802,-0.002128,-0.000468
79.631328,-0.233682,-0.243681,9.789669,0.000435,0.004719,-0.002689
79.641223,-0.237109,-0.251341,9.757127,0.002639,-0.004489,0.000416
79.651101,-0.247827,-0.253351,9.752071,-0.001571,-0.002058,-0.002716
79.661005,-0.250512,-0.248662,9.781806,0.000652,0.005250,-0.000446
79.670874,-0.250387,-0.248648,9.793978,-0.000367,0.000994,-0.000372
79.680769,-0.260861,-0.234012,9.778831,-0.000726,0.002082,0.001763
79.690647,-0.240021,-0.226291,9.777880,0.001372,-0.000243,-0.002293
79.700551,-0.237232,-0.258399,9.784327,0.000485,0.002292,-0.003046
79.710420,-0.234140,-0.268545,9.796463,0.002581,0.006525,0.000029
79.720315,-0.244759,-0.251146,9.789855,0.000967,-0.000418,0.001016
79.730193,-0.262516,-0.258593,9.775759,0.000035,-0.000141,-0.001571
79.740097,-0.240930,-0.256416,9.802276,0.000796,-0.002489,-0.001212
79.749965,-0.248038,-0.263223,9.799862,-0.000183,0.001346,-0.000765
79.759860,-0.231416,-0.237845,9.782726,0.001211,-0.002263,-0.004414
79.769738,-0.220478,-0.255807,9.768529,0.002182,0.001457,-0.002624
79.779643,-0.228191,-0.273015,9.792028,0.001268,-0.005595,-0.000371
79.789512,-0.240529,-0.268873,9.798388,0.003888,-0.003293,0.000837
79.799406,-0.241761,-0.239168,9.813678,0.000330,0.000568,-0.000405
79.809284,-0.243088,-0.230702,9.798958,0.000318,0.000776,0.000289
79.819189,-0.236243,-0.256422,9.805413,0.000921,0.000165,0.001227
79.829057,-0.236077,-0.278404,9.794106,0.002776,-0.002157,-0.002406
79.838952,-0.235202,-0.283445,9.801668,0.000097,-0.005781,0.002415
79.848830,-0.244776,-0.259632,9.798005,-0.001273,0.000208,0.000240
79.858734,-0.236629,-0.263863,9.774295,-0.001485,-0.002318,-0.004831
79.868603,-0.247681,-0.275288,9.795812,0.000391,0.003158,0.000687
79.878497,-0.252149,-0.273349,9.796876,-0.001474,0.002343,-0.000291
79.888376,-0.248587,-0.253579,9.791347,-0.002596,0.003462,-0.000095
79.898280,-0.243554,-0.267863,9.797320,-0.001199,-0.001706,-0.003302
79.908147,-0.248482,-0.266961,9.785351,0.000524,0.002502,0.000169
79.918042,-0.252446,-0.258677,9.780870,-0.000460,-0.001050,-0.000400
79.927920,-0.251774,-0.256082,9.802825,-0.000353,-0.000779,-0.004212
79.937824,-0.241748,-0.252496,9.810036,-0.002600,0.003379,-0.000037
79.947693,-0.250608,-0.265701,9.808649,-0.003092,-0.003282,-0.001139
79.957588,-0.247626,-0.262954,9.802527,-0.000384,-0.002541,-0.004373
79.967466,-0.227698,-0.258193,9.794113,-0.000090,-0.002522,0.004431
79.977370,-0.229989,-0.260687,9.789796,0.002628,0.002991,0.000637
79.987239,-0.237854,-0.245317,9.802935,0.000985,-0.002418,-0.001186
79.997134,-0.247904,-0.260392,9.790464,-0.002260,0.001608,-0.000468
80.007012,-0.219248,-0.264187,9.793059,0.001671,0.000490,-0.003137
80.016916,-0.239547,-0.257856,9.805978,0.000539,0.001942,0.000496
80.026785,-0.249046,-0.262057,9.794040,0.000175,0.001446,0.001573
80.036679,-0.241288,-0.247278,9.765072,0.000922,0.004489,-0.003405
80.046557,-0.238837,-0.261409,9.756585,0.000597,-0.000926,0.000977
80.056462,-0.242172,-0.263391,9.788372,-0.001137,0.000136,0.000415
80.066330,-0.238177,-0.265732,9.791461,0.000562,0.001713,0.002183
80.076225,-0.250033,-0.258929,9.780016,0.001067,-0.001417,-0.001031
80.086103,-0.251672,-0.248540,9.778259,0.000575,-0.000212,-0.001247
80.096008,-0.257298,-0.252850,9.801188,-0.001753,0.002380,0.004298
80.105876,-0.238626,-0.245949,9.789110,0.003967,-0.002664,0.000903
80.115771,-0.230247,-0.245314,9.771198,0.000714,0.004628,-0.000091
80.125649,-0.238398,-0.249823,9.789688,0.002085,-0.001022,0.001369
80.135554,-0.246653,-0.256040,9.799970,0.004531,-0.003123,0.000741
80.145422,-0.243423,-0.255818,9.784932,-0.000276,-0.001932,-0.002704
80.155317,-0.233091,-0.272377,9.793813,-0.001596,0.000475,0.002825
80.165195,-0.244156,-0.259510,9.806543,-0.000807,-0.006891,-0.001507
80.175099,-0.247161,-0.265188,9.793539,0.002642,0.001432,-0.001581
80.184968,-0.232480,-0.260884,9.777211,0.001934,0.000836,-0.003114
80.194863,-0.225539,-0.238680,9.784966,0.002060,0.000452,-0.002120
80.204741,-0.237984,-0.252679,9.791704,0.000713,0.001280,-0.002828
80.214645,-0.248838,-0.265289,9.799369,0.000619,0.000387,-0.000604
80.224514,-0.249203,-0.258264,9.795173,0.001857,0.000631,0.000936
80.234409,-0.225642,-0.242558,9.784044,0.001671,-0.001582,-0.001059
80.244287,-0.231552,-0.261511,9.787089,-0.000223,-0.001004,-0.004864
80.254191,-0.245317,-0.260409,9.789459,-0.001190,-0.000373,0.000719
80.264060,-0.246523,-0.274703,9.770457,-0.000339,0.006089,0.000767
80.273954,-0.244990,-0.255354,9.789281,0.002132,0.000378,0.000993
80.283832,-0.228962,-0.257180,9.812723,0.000646,-0.001217,-0.002573
80.293737,-0.255735,-0.254070,9.800421,0.000895,0.000936,0.000580
80.303605,-0.251446,-0.267768,9.795555,-0.001646,0.002476,0.000635
80.313500,-0.229955,-0.275067,9.803074,-0.001030,0.000108,-0.002850
80.323378,-0.227921,-0.255314,9.796478,0.002579,-0.002029,-0.002973
80.333283,-0.236690,-0.256557,9.790989,-0.000529,-0.000464,0.004960
80.343151,-0.241078,-0.266065,9.797803,0.000064,-0.000224,-0.002800
80.353046,-0.230878,-0.253571,9.796082,0.000195,0.000970,-0.000905
80.362924,-0.230746,-0.259335,9.789023,0.001425,0.002186,-0.000574
80.372828,-0.240997,-0.256304,9.811414,0.000834,-0.001708,-0.000438
80.382697,-0.244232,-0.247603,9.810329,-0.000426,0.001814,-0.003744
80.392594,-0.251544,-0.261538,9.799064,0.000204,0.004074,-0.000641
80.402472,-0.248471,-0.258574,9.790511,-0.000096,0.001194,-0.000204
80.412376,-0.242329,-0.258831,9.795824,-0.002104,-0.000919,0.000778
80.422243,-0.235142,-0.260834,9.799627,0.003865,0.001917,0.000609
80.432141,-0.241271,-0.265549,9.801546,0.000120,-0.003967,-0.000208
80.442016,-0.244883,-0.259389,9.800438,0.002598,-0.001630,0.001110
80.451920,-0.241765,-0.259189,9.807883,0.002753,0.001131,-0.000437
80.461789,-0.241413,-0.262813,9.805952,0.001126,-0.002845,0.001528
80.471684,-0.237876,-0.258679,9.800662,0.000344,0.002188,-0.000933
80.481562,-0.226958,-0.257336,9.815059,0.000691,0.003113,-0.001017
80.491466,-0.227945,-0.276193,9.793523,0.000441,-0.002811,-0.003881
80.501335,-0.226452,-0.261361,9.788619,0.003042,-0.001611,0.002050
80.511229,-0.229407,-0.262456,9.795185,0.001558,-0.001961,-0.000256
80.521108,-0.235818,-0.256115,9.810750,0.003613,-0.004286,0.001410
80.531012,-0.254205,-0.240118,9.814105,-0.002062,0.002956,-0.000344
80.540880,-0.244189,-0.247273,9.806045,0.001136,0.001990,0.002407
80.550775,-0.237054,-0.246831,9.796633,0.001961,-0.001421,0.002563
80.560653,-0.233774,-0.259480,9.783545,0.001352,0.001271,0.002938
80.570558,-0.234427,-0.266452,9.798789,-0.000419,-0.000626,-0.001337
80.580426,-0.227769,-0.242617,9.803858,-0.000213,-0.000834,-0.001012
80.590321,-0.229490,-0.228300,9.800043,0.002204,0.000154,0.002796
80.600199,-0.226483,-0.235864,9.785037,0.000620,0.004134,0.003103
80.610104,-0.236687,-0.259415,9.762444,0.000848,-0.002015,0.000496
80.619972,-0.261238,-0.273709,9.772139,-0.000684,-0.001089,0.000386
80.629867,-0.253169,-0.240353,9.759736,0.000066,0.003756,0.002242
80.639745,-0.224724,-0.255352,9.771768,0.001572,0.002946,0.001236
80.649649,-0.228215,-0.246354,9.799872,0.002509,0.000011,0.002889
80.659518,-0.235837,-0.251444,9.791801,0.001864,-0.001161,0.001327
80.669413,-0.232573,-0.249566,9.793542,0.000287,0.001714,0.000301
80.679291,-0.240927,-0.259003,9.794078,0.002663,0.001222,-0.000981
80.689195,-0.243873,-0.258740,9.788825,0.000867,0.000658,0.000398
80.699064,-0.247015,-0.270681,9.788771,-0.001519,0.001466,-0.000529
80.708959,-0.252317,-0.264734,9.786679,0.001996,0.003626,0.000055
80.718837,-0.237684,-0.253696,9.801695,0.003079,0.000022,-0.000472
80.728741,-0.238463,-0.248359,9.769013,0.000429,0.000012,0.005329
80.738609,-0.237898,-0.250889,9.792040,-0.001261,0.001040,0.001674
80.748505,-0.253541,-0.263128,9.786924,0.000580,0.002855,0.000345
80.758383,-0.246225,-0.266600,9.777517,-0.002120,0.000601,-0.002974
80.768287,-0.253593,-0.246674,9.793687,-0.001768,-0.000258,0.001810
80.778155,-0.249063,-0.251413,9.793358,-0.001572,0.004482,-0.001191
80.788050,-0.235208,-0.259216,9.781824,0.001014,0.000749,-0.000492
80.797928,-0.231866,-0.251142,9.776765,0.001252,-0.001610,0.001819
80.807833,-0.255263,-0.251368,9.775319,-0.000732,0.000546,0.000495
80.817701,-0.251561,-0.264737,9.795420,-0.002018,-0.004599,-0.001826
80.827596,-0.249942,-0.262800,9.788472,0.000628,0.003154,-0.000541
80.837474,-0.256781,-0.268071,9.789757,-0.001248,0.000619,-0.004438
80.847378,-0.252837,-0.252976,9.785915,-0.002227,0.000088,-0.001985
80.857248,-0.243814,-0.265108,9.801292,0.002524,-0.002610,0.001012
80.867142,-0.241040,-0.256320,9.772546,0.001455,0.001398,-0.000638
80.877019,-0.251593,-0.254149,9.781420,-0.000617,0.000676,-0.002828
80.886924,-0.250180,-0.268014,9.804562,0.002340,-0.000472,-0.002077
80.896793,-0.249465,-0.263345,9.782125,-0.000317,-0.001882,0.000686
80.906687,-0.254631,-0.241842,9.788246,0.001794,0.001360,0.004017
80.916567,-0.232102,-0.252733,9.780192,0.001114,0.000313,-0.000639
80.926472,-0.233373,-0.238036,9.785778,0.002482,0.001031,-0.006302
80.936340,-0.232801,-0.243474,9.793495,0.001534,0.001735,0.001677
80.946233,-0.243691,-0.263391,9.786421,0.001668,-0.002347,0.004646
80.956112,-0.242299,-0.253620,9.789448,0.001515,-0.001210,-0.002210
80.966016,-0.232288,-0.274274,9.783968,0.004024,0.001631,-0.000374
80.975884,-0.236384,-0.266702,9.778032,-0.000458,0.000051,-0.001931
80.985779,-0.241693,-0.272426,9.780741,0.003260,0.000323,-0.001549
80.995657,-0.250247,-0.261586,9.802984,0.000599,-0.003348,-0.000872
81.005562,-0.248599,-0.254776,9.784095,-0.001146,0.002040,-0.002387
81.015430,-0.239107,-0.244141,9.780303,-0.000968,-0.001838,-0.001442
81.025325,-0.222418,-0.275477,9.776741,0.000605,-0.000574,0.000212
81.035203,-0.239756,-0.243433,9.771830,0.004189,-0.000806,-0.001229
81.045108,-0.242556,-0.255735,9.785924,-0.002966,0.000882,-0.001110
81.054976,-0.242360,-0.262659,9.782632,-0.000918,-0.000650,-0.003318
81.064871,-0.241035,-0.259235,9.788360,0.001043,0.003346,0.000690
81.074749,-0.242677,-0.276723,9.794349,0.001554,-0.003000,-0.002601
81.084653,-0.239425,-0.268617,9.797354,0.003990,-0.003979,0.000668
81.094522,-0.237140,-0.251028,9.781341,0.002043,0.004003,0.002300
81.104417,-0.241375,-0.271440,9.788697,-0.000266,0.002662,-0.000262
81.114295,-0.239879,-0.262365,9.783501,0.002721,0.000953,0.000900
81.124199,-0.247193,-0.251351,9.794370,0.004606,0.001718,0.002472
81.134068,-0.247077,-0.251302,9.790202,0.000820,-0.000795,-0.002041
81.143962,-0.236615,-0.247897,9.801215,-0.001369,0.003340,0.003974
81.153841,-0.243875,-0.238652,9.799467,-0.000268,0.000063,0.000225
81.163745,-0.232966,-0.233519,9.791405,0.001592,0.000078,0.000778
81.173614,-0.229510,-0.257069,9.788259,0.001496,-0.001710,0.001146
81.183508,-0.236309,-0.261218,9.799314,0.002234,0.000993,-0.001929
