t,ax,ay,az,wx,wy,wz
35.56,0.11734216082339455,-0.3482808562271845,19.604708711552338,-0.04186469915641205,0.016349509175148148,-0.003829903405020315
35.57,-0.07822492705037394,-0.41897483035823957,10.324274719889756,-0.000761638101625209,0.0072411564079290025,0.027565984214849786
35.58,0.007807318893599002,0.13053403506817648,10.549936298858563,0.025151994254340202,-0.02645107791885473,0.018312993486451892
35.59,0.10553758412853786,-0.032696825228954535,10.661624540005358,-0.009793354096091764,0.017789911316028483,-0.017380958783827165
35.6,-0.07737842048651433,-0.1253831334924935,10.641715977793892,-0.017304131036762857,0.001419770112135551,0.010726607631697803
35.61,-0.12706683497317878,0.2813668501787946,10.928392989925177,0.03004155003313079,0.015402754617852583,-0.010865736036936304
35.62,0.04358715393501381,0.03251320804421267,10.781634722853388,-0.009296627741212284,-0.0046260941470183045,-0.032557128343712854
35.63,-0.1379409152299999,-0.17753157668244626,10.346295077359391,0.005466112813795495,-0.024923944146195046,-0.03409128748601829
35.64,-0.04576046273523138,-0.12842009336046523,10.597270219968177,0.0029201664970053085,0.04074460424375622,-0.03335283478205893
35.65,0.14853995705954143,-0.16847385904592943,10.620237231711567,-0.03374995323784706,-0.0022649692110831704,-0.00068969894070233
35.66,0.11705881504881126,0.1485798626786541,10.36657512695071,0.004040085372982846,-0.024234968924610804,0.0027543480318102916
35.67,0.04770310273603468,0.07035608130480318,10.257465983462112,-0.06482491380426814,-0.011020992159599351,0.04584111123777247
35.68,0.013223028877998078,-0.04710416192120874,9.854289740419981,-0.009159169418053085,-0.003679900305051388,-0.012253962479453363
35.69,0.14241964651997735,-0.25976839819605946,10.145344687311137,0.006115816746216042,-0.017776463697592296,-0.013092827225208738
35.7,0.21658720529953182,-0.299353235648052,10.32990723907495,0.0002460526642112412,0.0008663664794499833,0.002065350635825147
35.71,-0.09551061659691283,0.07216458356076579,9.70849146638202,-0.016863742296058706,-0.020044131827072043,0.019496456635201914
35.72,0.11842269983680899,-0.07595338239027334,9.852994103297696,0.013556493765500503,0.013341797181332986,-0.003207214477274387
35.73,0.16358340838167817,0.09407673683875184,10.063312090769694,-0.023310549759632305,0.011290783681227408,-0.0029420224906888132
35.74,-0.2380325286689292,0.3192586576613096,10.365054758039507,-0.011550140789061773,0.005659631257883103,-0.00048519221474211766
35.75,0.04139540918119157,-0.11059020782832983,10.147139393781059,0.017152930254545177,-0.017771106223938977,-0.022316897785754273
35.76,0.22815847180213608,-0.13045093131115446,10.36288810663175,-0.034731645338708525,-0.023463831347493042,-0.015014890260018952
35.77,-0.14746773532686172,0.037303458889837465,9.765775286211678,0.0009749771921059309,0.020974329074289973,-0.0028475209564586433
35.78,-0.01618030990030869,0.07998570381541341,9.798766209853834,-0.04404953712759362,-0.0016222095385651318,-0.039267598072839874
35.79,0.08701177969283226,0.11472048653603673,10.038720351889546,0.029523374705019995,-0.00834668689354144,0.010457286962627824
35.8,-0.1088068668507943,-0.02975492098456428,10.110158043618501,-0.00928591658695186,-0.00984099868481881,-0.006297041100923348
35.81,0.0029145747293434637,0.10542133035927752,10.179911465048793,-0.0066642853772773515,0.02736725556524229,-0.026334999304222034
35.82,-0.25327776900291377,-0.10169873909180696,10.186433600186724,0.019778540708829572,-0.025517762448791847,0.05721100880174751
35.83,-0.10768795778730685,-0.23649631627620918,10.001918542351616,0.011634261120377964,-0.002293614120013379,0.02336444016303345
35.84,-0.23991537910020536,-0.3724117515802172,9.808982201111057,0.009699858073159566,0.014840765906896706,-0.015351530712091206
35.85,-0.0556164621602971,0.05252113255689896,10.024625288752842,-0.034996752380438007,-0.00319059041442505,0.03149025900864265
35.86,0.37897773347354613,-0.08530192180749611,9.914751162737462,-0.005154018441824493,0.022154409270421355,0.028070010789957016
35.87,-0.19269566308654637,0.2512610687745986,9.694527780005881,-0.037164368668766934,-0.03609809025689929,-0.01710708919468819
35.88,0.4665658895328075,0.12878550335201444,9.915338328929609,0.018433439402644112,-0.005954226794310309,0.027643825405459968
35.89,0.07790209413266916,-0.32732278315750457,9.847856270770992,0.008471120098137934,-0.02563808434287627,0.011010204944380101
35.9,0.061205570672131136,0.004015802654570857,9.938577963676044,0.025170855638080677,-0.03275395854379519,-0.003636004474381991
35.91,-0.18070687197666407,0.14649997175576335,9.704784040361869,0.0035994848766384533,-0.014668748402955588,-0.012543184972371522
35.92,-0.11956103248250319,-0.0793947566528627,9.719344163348064,0.014440706805459945,-0.013783021652502824,-0.010450741605182522
35.93,0.12554142007492047,-0.002309687563525567,9.39003809213941,-0.005752620264259957,-0.00259449626387578,0.016766813070668088
35.94,0.07260422345913291,0.02760750465640188,9.599966239149328,-0.014144890589670804,-0.013855138952543922,0.026221722228050637
35.95,0.4222508880598291,-0.08178245936269257,10.068745459968303,-0.021239060470303994,-0.02590299716338133,0.000266014131651957
35.96,-0.12163002681550786,-0.10537004877510182,9.829729197033895,-0.0173787315685257,0.006952553969970572,0.03210651873970121
35.97,-0.4125509481959738,0.04211901057992429,9.729789504145623,-0.006952874103136002,0.03859048989113869,0.004442730232118566
35.98,-0.08295685002175565,0.10712720100894738,9.68691364843675,0.037618148595784294,-0.001548758484034113,0.00026656491887396954
35.99,0.25259171224589494,0.267772460450479,9.880843180721259,-0.012924727961084136,-0.02055705460882915,-0.006966786955161753
36.0,-0.04905855886508103,0.055957198061363116,9.693145060759479,0.021341575971562235,0.021047245730011415,0.023395123287311116
36.01,0.10880348050945793,0.21992944889603552,9.989914336430962,-0.054057585870524845,-0.01784574078579695,-0.009843724217441403
36.02,0.13183754311746332,-0.05191595326251022,10.052780412551298,-0.048975780113264075,0.005090961578976199,-0.006922301625478916
36.03,-0.21038566501585662,-0.11111990762943073,9.766879492822778,0.010387734735828756,0.0018394750053822941,-0.01956228310472552
36.04,-0.0636920172705818,0.2657228401437209,9.881615713191833,-0.007591496801319297,-0.002721780596078344,0.007261867967685284
36.05,-0.1504854189611387,-0.36282563530407924,9.91271157175443,0.018012169688642523,-0.00798553136230817,0.010441950878138397
36.06,0.24963401806131455,-0.2190421336281404,9.850994983242812,0.028520045788930345,0.031062803488938345,-0.01838231918548099
36.07,-0.0909528402394862,0.07127105860512337,9.875765111600124,-0.017159106866053014,-0.0035794777855502895,0.0007181543792311204
36.08,-0.23094545473018865,0.1656028515846553,10.047996977069195,-0.0036378611810580627,-0.012413800930067801,0.008484138230459033
36.09,0.06394018084625819,-0.1550426399456349,9.474297822613996,0.025511653343676374,-0.014483003656570799,-0.005314740813354726
36.1,-0.10314762524618473,-0.030623149891991334,9.396467753909754,0.031324943493568645,-0.009844995774222558,-0.0199584559299916
36.11,0.16547122283770477,0.14752822901422005,9.90760837912346,0.013281013574181324,0.025544879849405185,-0.01717123367499035
36.12,-0.07252270411872072,0.004084485952768958,9.591210772409108,-0.013342657561404434,0.03818502970879628,0.011485755566597285
36.13,0.025174339100422927,0.11067330047726756,9.772345980049936,0.0010190595077859829,0.03402128691819873,0.004965650081037669
36.14,0.09602384059195175,-0.17596436204800223,9.936934000150718,0.030643599480882466,-0.003549511152475873,-0.001032010691641835
36.15,0.013999920561723094,-0.08114599313938818,9.61775488801749,0.0006558088466694753,0.01761568564708907,0.006378469226548471
36.16,0.019564991587581015,-0.08068909552698994,10.008102972316838,-0.015234212243393271,0.01720188003602394,-0.008873224448033292
36.17,0.058929069039591477,-0.0005198753469598838,9.937151627241494,-0.024527195924026073,-0.02723166440554731,0.0008189551948605366
36.18,-0.04550959560348532,0.1299393045273387,9.912658447460688,0.019669113625172884,-0.013118331598483616,0.01339541059380534
36.19,0.1568987041549651,0.25879494863231983,9.868849738151686,-0.011177829996443818,0.0025345360456709236,-0.017374882012614026
36.2,0.026623859074883616,-0.02425247083578264,9.961941519498119,0.018501561035937548,0.05096265717130872,-0.014189163520363174
36.21,-0.2606235809687088,0.3003105108953174,10.063092502068518,0.011875053360986028,0.013602806994924343,-0.006815072451568843
36.22,0.031662632731120945,0.1519814282697415,9.602427483559504,0.0108747184489975,0.008148666868873533,-0.003581221524462147
36.23,0.09466231784445812,0.057997463907344185,9.714033267456394,0.03820203298422935,0.005722137836855006,0.0069569539964159915
36.24,0.09352209207952461,0.20459595729506022,9.63120882453493,0.008460553792449794,-0.023862737643469974,-0.012324715809597606
36.25,0.1166171308469689,0.12172964009602327,9.377527319080828,0.0034821059638619825,-0.02667053361774753,0.007044848670827071
36.26,0.165921563846854,-0.08718151348934398,9.288360875015075,0.003578348368524939,0.015949764062973954,0.0035856494814111984
36.27,0.016551623397426645,0.09609160765671951,9.546071236638745,0.01737007787981074,-0.014951883202611056,-0.024879722067597063
36.28,-0.12097689080290726,-0.018911150926089207,9.293391556508285,-0.0035704260567967516,0.018962561048145546,0.04302952922679846
36.29,0.12619663648557747,0.04481537030827477,9.86779912478324,-0.006723054789838191,-0.01730540121477819,0.00844718190845579
36.3,-0.3409545250952519,0.014805740188641905,9.779191074912417,0.02393369385373503,0.009477027573607579,0.03468472454312324
36.31,-0.07198076146881603,-0.03297184147945553,9.810016019606824,-0.009902800980620508,-0.010712397554251669,-0.024033866886745584
36.32,0.007385349761182621,0.1808808283281514,9.043085677322809,-0.002929943415487329,-0.03968409270303951,0.0019702892561992793
36.33,-0.20160209953060537,0.3226588065839078,9.380635726565748,0.0066022529244534585,-0.00027740733301776866,-0.00979738468852158
36.34,-0.10774126118072909,-0.07920565358513246,9.501039953071336,-0.024275063453192476,-0.015053188930432525,-0.010421198419100655
36.35,-0.1033986764067031,0.07922731821568166,9.952825510182299,-0.0033652988196657243,-0.01432301927226104,-0.026447609600057338
36.36,-0.062455200278184686,-0.021189241214902302,9.8932877965796,0.0079869352052067,-0.0014124543599643498,0.0015290469120398118
36.37,-0.2629565143102099,-0.11543793721031909,10.056494288415855,0.0066770490714910995,-0.04552367658073618,-0.0032890921631118617
36.38,-0.06171032443973943,0.1485444729705432,10.111926014084668,-0.03802390723995284,0.009076968973218493,-0.008257021188117504
36.39,-0.159015701536042,-0.14747204990103713,10.20340477606472,-0.024115885496002302,0.016881207499897237,-0.03617727436425678
36.4,-0.021456754536333892,0.08438415186570808,10.300598423905827,-0.04019181027148828,-0.02138343413179164,0.009082784888795208
36.41,-0.16626626221799679,-0.2597421932228379,10.039412094551544,0.005513444345415715,0.029970300517327183,0.006189265910025719
36.42,-0.17146625439036603,0.157969234590411,9.878924870008348,-0.0346506944017353,-0.014649314459810613,-0.02170085365860258
36.43,-0.14613251123944343,0.07527459041530289,9.283743836164739,0.009923150849080272,0.02486104286832547,0.025444945178882537
36.44,-0.2987977509275899,0.3209020479864145,9.737964476817092,0.01259939719842199,0.009957153305234973,-0.0005455756040652619
36.45,0.10263270076273531,0.030929256799863216,9.57498736800204,-0.006736969760553016,0.03036668315302812,0.01155971546090487
36.46,-0.030574501588861578,-0.05932408191975622,9.537541922937187,-0.018909904480526988,0.005275098743757633,-0.015728653444806066
36.47,0.04666180708411362,-0.034611747162181516,9.852344176694295,0.029326667368705317,0.03121213699540576,0.007114905350423944
36.48,0.18183871749249392,-0.25846829367377655,9.675043960091065,-0.0019107540454651943,-0.011332293078817236,-0.0004558883274546378
36.49,-0.06001684199562178,0.07563175220964777,9.587981272364448,-0.03246792508836471,-0.009215864670420291,0.019408366640594196
36.5,-0.3158247568186651,-0.21477389874692412,9.883781051719124,-0.0213344781673136,-0.008540800929000664,-0.004188311838586357
36.51,-0.20259668959709753,-0.09255539056593835,9.59766093062224,-0.04049066725705433,-0.023521055003957132,-0.004181485708564476
36.52,-0.2402943906498631,-0.41181772882879203,9.556114823688665,0.021415079873543998,0.029086547680786383,0.017194080798640272
36.53,0.13547948649586108,-0.10094893213931533,10.071696479987398,0.029347381875018803,-0.02060057833862552,0.004976144639955853
36.54,0.30493611835682266,-0.34122038375659286,9.538899728743207,-0.010669288165821522,-0.00930674915957236,-0.04008101787537504
36.55,-0.15791421649277174,-0.20952049507780482,9.810490941186915,0.01752079596190046,0.008963389328004171,0.006881051942679611
36.56,0.22509296892705716,-0.05228569189861371,10.300272721156547,-0.012032816583592915,0.0072694016714158,0.016646947462648217
36.57,0.4037665240606639,0.019354457483235415,9.618047973086592,-0.005622954452990971,0.03042582747622133,0.024091167983932057
36.58,0.11625882082580728,-0.14518655058965632,9.922796718548305,-0.014900434102519955,0.007441789585802655,-0.014234042695370106
36.59,0.19052377509002838,0.06151371289300497,10.06253922014555,-0.0015398823017873959,-0.015033354843563064,-0.018119800696690322
36.6,0.14484706595325722,0.1663540582990951,10.126661509566638,0.023441431387134417,-0.0649232895542464,-0.008289945896015685
36.61,-0.02088200119290915,0.3127051022963303,9.738119836541646,-0.02515475359401127,5.568965352506252e-05,-0.03326962785615752
36.62,-0.20095796049875012,0.17428796995348297,9.51131082781324,0.04163393696630539,-0.0005165870715515197,-0.01765470637907437
36.63,0.2040195692600235,0.1176452711845554,9.667719851658077,0.0010931971224149048,0.009753447353004756,0.004444025502853911
36.64,-0.09533293869622449,-0.16272168624067576,9.803554039461774,0.0024316721355428744,-0.020019761401792832,0.025783413695265555
36.65,-0.021824751178469912,0.16047781927217186,9.949245436468503,0.02795947206506075,-0.010410228141252075,-0.017261860445762323
36.66,0.3779441359348564,0.11218556940492935,9.827041328076737,-0.018947263284541466,0.019111066414233813,-0.03391610876608904
36.67,-0.07801270890768279,-0.15154557250560796,9.917359408452903,0.01170662303619762,-0.02220478646663881,-0.026279277518478153
36.68,-0.12835641996777153,-0.13844898869633387,9.554611294514933,0.0020257289570651486,-0.02285079920865295,0.0039264127228731075
36.69,-0.16175589984884653,-0.04961986439445533,9.70525699212681,-0.013782664796110533,-0.0018709612448983936,-0.0012378406561674813
36.7,0.3959442122666101,0.04336199174189571,10.090371652881766,0.026572435054962554,-0.02554255087420607,0.024853089956259476
36.71,0.19199906056011365,-0.04372826402147959,9.520558145112524,-0.00697936529512326,-0.06534380073155226,0.0009730979975270634
36.72,-0.056067549354824435,-0.4866346822572381,9.470080840042224,-0.013193345660554053,-0.00047901568397038825,-0.01285794316894849
36.73,-0.3438193527774075,0.0639254030977323,9.691402405576035,-0.022758908234891396,0.007475725047831177,-0.0005901986853575453
36.74,-0.19781487171240342,-0.04733679304970395,10.059059468840772,-0.0033909606265545345,0.03553579505554951,0.004474767495468667
36.75,0.0779266564363336,-0.015991431264091627,9.69271608967186,-0.007589867873851602,-0.019361260890214126,0.041770713485433084
36.76,0.17096745260152352,0.19400915042085523,9.772861016853524,-0.0074192091737329754,-0.03684961470003526,0.0062485082767276675
36.77,0.052492095046566774,-0.20808514758534608,9.643577902428246,-0.00117839450399505,-0.0018189611277820111,0.009533975594284679
36.78,-0.2766669414149109,-0.06960865430792698,10.441230632216287,0.012154255852234034,0.011236662865270336,0.011648903615844074
36.79,-0.2916533714093184,0.07174927150060598,9.464615013157362,-0.007994039563670896,-0.0035092708609078802,0.004735914383625791
36.8,0.31151194450763336,0.026916332350057772,10.145827208142643,-0.012718981530313245,0.00883176274887009,0.014427421746168229
36.81,0.010125179491600722,-0.09810097405963977,9.53771193033292,0.012961327251336146,-0.01094170047593229,0.007318339291576127
36.82,0.03297228852759182,0.07558758185976422,9.758065129012964,-0.016378647052595834,0.010037509735763037,-0.022700196261537353
36.83,0.21414598801162377,0.3900155208426574,9.773259155091393,0.028472255731969542,0.0037069316643866088,0.003416946130033955
36.84,-0.06300056779334318,-0.19048058045902558,9.96997021619124,-0.02305366342987218,-0.02476806541263867,-0.043894415752582766
36.85,0.036779959411192664,0.16749606147348475,9.78782861671903,-0.007049365575027466,0.015706854475107966,-0.022238534835872313
36.86,-0.10140553767650722,0.1103275429145731,9.60785602523684,0.025722121894915774,-0.0003488287773291978,0.004391302505790219
36.87,-0.039566077619010265,0.18204287042583878,9.937767653798886,0.004380109661753304,-0.013272138498253315,0.00806788384391322
36.88,-0.22694966710794545,-0.24358447784376347,9.994758698520847,-0.011566193407163725,-0.02870671541919169,0.020210867531034547
36.89,-0.033447003222768,0.33171952505383784,9.73195829022059,0.01257992024989816,0.006131953893700557,-0.005873066434057882
36.9,0.2101118872218715,0.16556462722792792,10.037632654985789,0.036873135927389104,-0.017979084957198035,0.010308028825595575
36.91,0.15386943274571477,0.06678240152103658,10.001267975418736,-0.01934830874465715,0.02205123572803482,-0.029163012865819706
36.92,0.26110838845358497,-0.05372343862624652,9.682365482947583,0.024614751449453146,-0.06098288474441478,0.009173934082548211
36.93,-0.11419889581566149,-0.10200231697836903,9.974050870965815,-0.007563814647518785,-0.02192559193963308,0.028787101506887843
36.94,-0.16446543310724507,-0.1759916009406675,9.669591597292804,-0.002341678795345349,-0.025278159085808636,0.04058003039047135
36.95,-0.17269390005708746,0.22277094553981172,9.54543491182942,-0.011670636444416403,-0.024770344775246977,-0.00566263362536804
36.96,-0.08881035276782213,0.13274091511844613,9.928955755529312,-0.012616865335651182,0.017299256518463195,-0.011184138356349148
36.97,0.0464763653851738,0.17398181115333136,9.929961880310827,-0.012087724799201725,-0.0086974601955802,0.03250644221628335
36.98,0.1508213881314582,0.17778660078869635,9.772715971402668,-0.009473196240788509,-0.00986084109438975,-0.04553020819860401
36.99,-0.1029250443021921,-0.04089558472647011,9.906597922551537,0.015399090050964183,0.01049232567193591,-0.04092426449771673
37.0,0.06404510785468544,0.03432368385105513,10.032914645086734,0.002183491125242953,-0.007984701062258286,-0.00026522889160948405
37.01,0.10180214404442955,-0.08340578841201839,9.874316631802506,0.03721808437938463,0.004756763510891216,0.023843599946896277
37.02,0.08740403257832444,0.0011305026301119034,9.839052604723566,0.0030995468710043514,0.01706402737591951,-0.0017797986994793492
37.03,0.2479821072048074,-0.24150977354221703,9.650287309067345,-0.013235535070245746,-0.004859383211386422,0.008269167939186351
37.04,-0.004889311091111793,-0.001604017844628533,9.961478819328617,0.011010204245621508,-0.02329860480990785,0.017001645939200238
37.05,-0.1399989213879209,-0.053218407302844654,9.373259379807825,0.015382786762748468,0.016351830689647746,-0.0015236483185137276
37.06,0.13668604697470083,-0.13674855478367898,9.515492637684693,0.017924222547390314,-0.021212505783788565,0.019105663511955685
37.07,0.20061919488468272,0.19813316081350973,9.80164554334729,-0.007289350694368895,8.624574711039469e-06,-0.03564219600911
37.08,0.291630816227838,0.2238740184092849,9.72580646898252,0.003284046013788301,-0.009895566591414015,0.025668228062205662
37.09,-0.304595220548866,0.20657454036723158,9.523073311517253,-0.0030714277729366932,0.018420580588104127,0.013626547608377497
37.1,-0.19138575100267166,0.030754948485901323,9.832484228575359,0.0014269184854248307,0.017546150083331175,-0.02184531097824017
37.11,0.15134083581703617,0.07368030922942977,9.669444224319871,-0.023214471023137128,-0.011876255108325726,0.030595784063521418
37.12,-0.21064685375076747,0.02374421252574043,10.109590090311004,0.028656722235491525,0.020995622645868767,-0.02295443751122111
37.13,0.00418848919381519,0.24206247040497167,9.663575558059447,-0.0367606678346269,0.012863900371302485,-0.01400612833811101
37.14,-0.307652358747713,0.12020835199387704,9.975387212760337,-0.00747699610272012,-0.014229703972227645,0.030303040713084806
37.15,0.058874188540029,0.051989685797583625,9.925912415442625,0.007215000535330587,-0.029117655520175756,-0.0069392214034413235
37.16,-0.325094557634236,0.28537371446063925,9.416841478135678,0.013647779073450996,0.03862155793324973,-0.007187482466051547
37.17,-0.24824932339465633,0.01846908490699409,9.413218599813606,-0.01811439965866917,-0.019498228833641575,0.009004453727931282
37.18,0.27496202056960334,-0.22329432393409612,10.083749805978766,0.013979849304304785,-0.0368827059545426,-0.01008417189017471
37.19,0.18213485469276108,-0.028027833596515242,10.132726987481705,0.01797335004118998,0.02598244070207129,-0.006159321289723769
37.2,0.05189669819009299,0.3098946213231861,9.888542780983478,-0.01879294726742833,0.030649733821295183,-0.03146460115221476
37.21,0.08506108670255363,-0.015942150828671658,10.277021037559317,-0.006071721317783788,-0.013212679807797553,-0.0017245483487251744
37.22,-0.3183857168570026,-0.18835413187090336,9.98872852947128,-0.021978974182279676,-0.021747330705125845,-0.022777821656305163
37.23,0.15245319662275733,-0.002679128895476344,9.64994705587594,0.002126433271048994,-0.029978138573424584,-0.01397576184855171
37.24,0.14008892882195847,0.05785908841545341,9.71051266425802,-0.006157366739986833,-0.022595432017574513,0.013968866200984534
37.25,0.025061897755034482,-0.5420938127519288,9.64622376153822,-0.02057694856888694,0.02848252407430137,-0.011958475752064787
37.26,0.11456065929988896,0.19801568048815152,10.207026974515584,-0.026663896685947108,0.003734622577002071,0.001592370843339854
37.27,0.04103044997573097,-0.1047449187850155,9.508492684202686,0.014984176332815758,-0.023645217566955867,-0.019490943466048218
37.28,-0.03198633106073891,0.16654832283372473,9.97641573519061,-0.011507269673449307,-0.02902045508797318,-0.008058349982428197
37.29,-0.2636706787081454,0.03465300778187948,9.276597664949485,-0.013024782003778284,-0.0002592035227685392,0.00818751640057198
37.3,0.011088658765247963,-0.06775016550231526,9.845387830797396,-0.0057237551949991935,-0.017071893205325598,-0.015629743759043708
37.31,0.14601115346981855,-0.2346469870047338,9.581497558938935,-0.03458242333087844,-0.03856257764081885,-0.016033159871066214
37.32,0.015750067870837766,-0.22024871454770356,9.69039280662098,0.005045077476435181,0.007469746885125866,-0.009046981967751866
37.33,-0.14378905683499962,-0.11516086130125804,9.84245021390556,-0.004732388670362042,0.01742181820112639,0.029766790661922924
37.34,0.08781408648785725,-0.09496756464089959,9.917427091276519,0.0254312617961379,0.00983246190515046,0.01063282068119886
37.35,0.14825543087618948,0.05768895074713464,9.976940434169167,0.01155990785218058,0.0041066904299608565,-0.0508721332664878
37.36,-0.1652512453140322,-0.04798843824333772,9.95253479048548,-0.021470456151857165,-0.007817770142909922,0.012750278307225126
37.37,0.07090532483396315,-0.05458508080515826,9.912839828905518,-0.006760953063663418,0.05728958688430842,0.007077256850214458
37.38,-0.013761755081298826,0.08893165893360779,10.215511765193344,0.011350950358071068,-0.011485978764540224,-0.011531011633303985
37.39,0.23549119415909306,0.026194604910436885,9.529143407440257,0.017487583777830176,0.009305422501795998,0.007838007758066128
37.4,0.203675117196799,-0.053277707086124525,9.464435831967647,0.030933948545774,0.0030475660930360947,-0.002738260437779485
37.41,-0.157660225904795,0.12975898968332203,9.72230833741867,0.002819531675930004,0.03340657969703725,0.0030281666715973135
37.42,0.01993974304740813,-0.013437728852528946,9.85402355004609,-0.007174824336412594,-0.0024799176345613933,-0.014241331014676794
37.43,0.3202254848742895,-0.39292705520789256,9.590928906861674,0.011683656696872437,0.014991289458847706,-0.015344301881508532
37.44,-0.06914372808852132,-0.08904286190075317,9.725300303909924,0.017427268794496544,0.014160325240035672,0.01970305840603322
37.45,-0.06368190815845609,0.3970310690800971,9.88709842953754,-0.005629911922211921,0.032044592404969145,-0.0011479830557288274
37.46,0.2503361630435439,0.14994794564113764,9.868120718882508,0.008251093530198988,0.02869765751735605,-0.019866360810688332
37.47,0.04948831569950847,-0.2782569937708629,9.535214833607736,0.0021789221649301314,-0.012904952867686403,0.007985533864357613
37.48,0.030870722675820167,0.06756786560615234,9.86156782367963,-0.014489569641217101,-0.01433254920187384,0.012311623203282315
37.49,-0.11079585685668958,0.06252605330243673,9.85844538525975,-0.00346768562335642,0.016004770183347578,-0.016443173088071878
37.5,0.07933156850108876,-0.04848428203153381,9.499273408920468,-0.0034871608461366104,-0.027602330313170664,0.01791209251393924
37.51,0.06839843013064596,0.06449321845120574,9.692999534728274,-0.029179605202718627,-0.003536152120386286,0.00795383559002295
37.52,-0.2502500057805918,-0.0326973453141557,9.883739488660979,0.02795645518978756,0.015589715120209043,-0.007765987426234742
37.53,-0.3806336844133832,0.08576296799260265,9.746795640543688,0.0032611958463442895,0.015062508534714764,0.015480061192033642
37.54,0.18288289963338764,-0.12627342697560665,9.55106839881888,-0.013985653086492213,-0.01235402112017933,0.03934867862198114
37.55,-0.04173487238794683,-0.008857496088509538,9.923872529731469,0.02502801077950047,0.0023494537131911785,0.004786068554197214
37.56,-0.1705123743024236,0.2678962818054138,9.726030159003063,-0.0016419671508727325,0.023388587380985447,0.020017237996127236
37.57,0.2671923822028349,0.13463654701839955,9.337621452370875,-0.051454600325864935,0.0029280696207246953,0.020052906654970955
37.58,-0.10765674421824198,-0.27877270552036654,9.763213739310707,0.005104794263335213,0.026100338759809716,-0.0030197242631364086
37.59,0.09102565750824634,0.16624815478259175,9.754113317644615,0.011206925328432987,-0.013236236183652415,-0.008644173023785345
37.6,0.07070304353247106,-0.14442797701370108,10.278066502344561,0.0016068145595050567,-0.02521811983050425,0.0329230207656454
37.61,0.005321851307522338,0.0194445931388086,9.56508418236191,0.018609499143261005,-0.005470382867002164,-0.008618116343013274
37.62,0.2691221325174738,0.08067387934260492,9.86455605194953,-0.008724264656145779,0.017605963175817002,0.02945730630430749
37.63,-0.2132125514369719,0.05554901996337409,9.893445605748358,0.03249236233907598,-0.00018917202855318294,0.00643668664611236
37.64,0.16838908959543428,-0.008226097339315449,10.082629595754174,-0.003871539397888513,-0.012799966413226803,0.005811933320679586
37.65,-0.06945078655153876,-0.36547091349931654,9.720361448023155,-0.010233567906230246,0.008490829168678831,-0.02005269245177763
37.66,-0.27277551408837836,-0.013169056114167755,10.01882902133499,-0.020701631890945215,0.0017996986982649278,-0.02184801443768922
37.67,0.20991241965293825,0.20426787857442935,9.857943774791654,0.010895538693238914,-0.0024922245947557437,-0.003640636300854364
37.68,-0.08425390456980031,-0.3981723826364809,9.62215481134194,0.01440802918864712,0.01721184917967744,-0.015061032073927434
37.69,-0.1567845665075542,-0.2478245818515829,10.203848595470495,-0.015652153780574912,0.004578584294338439,-0.014279556266037493
37.7,-0.08892119755855889,0.038481803202076906,10.027329545834794,0.015127457714255978,0.010868276384694555,0.017291265450733995
37.71,0.17602949855892386,-0.18777081036973134,10.082664416883006,0.016532794407011987,0.03416123989087827,0.007631235911205172
37.72,-0.11224603476583175,-0.04640302543709343,9.65790607700204,-0.0017821314118714082,0.023239491050291626,0.014383326468547272
37.73,0.2062748663981574,0.13127182947816987,9.825041827442847,-0.01317580631683693,-0.013795440436414124,0.018584090289507183
37.74,-0.1416748755440854,0.22642304527420806,9.94938958763948,0.007777425926428017,-0.0065727214731587606,-0.003526671106965752
37.75,-0.00025998230939893325,0.07016928383997731,9.323067073404838,0.0011500594518158906,-0.024730338798360403,0.01251399094418537
37.76,-0.11033299027966434,0.35401490534067614,9.472364999922704,0.0011188624779684658,-0.011285275468801134,-0.022394369738913386
37.77,-0.031350676037221276,0.2452809028911733,9.576440457694277,-0.0010074846159932097,-0.005793312340200109,-0.03807103108308362
37.78,-0.033782145171108856,-0.13519207197999908,10.095399952415995,-0.010957327762174097,-0.0023639268508624397,-0.01485538770108228
37.79,0.11111624579285322,0.17189261257127525,9.474263184291871,0.004912705853665242,0.0369442354797565,-0.0007464615890350627
37.8,0.056853394742598144,-0.04099068653328201,9.617408127932675,0.05236960981294404,0.020753671909495404,-0.00010401431770927917
37.81,0.3914628525195305,-0.013231135403151937,9.8886459733293,-0.007292626475366525,0.049394684070688616,-0.013956164222285598
37.82,-0.12027246079033008,-0.0886122629398195,9.569081813980137,0.0008106358152983541,0.0013044449690947796,-0.014811881082268172
37.83,-0.17102317852210785,0.3752347766054339,9.55581701239595,0.04865138619019622,-0.03385278123453607,0.004517137331862748
37.84,-0.015516877183078799,0.0026955032594138915,9.932551462462081,0.00033172028979837337,0.001374504089502529,0.006222536925383711
37.85,0.1495408485150939,-0.08664778660213998,9.755184075790087,-0.015652092020649964,-0.0010469615624677333,0.005431550690726835
37.86,0.10943450023810256,-0.08909615230727054,9.902789975520909,0.006390812291040138,0.004970600456998922,0.0027526917726680583
37.87,-0.04327479855642045,0.0025609988801253308,9.837648457733668,-0.03768926060886234,0.03536121412880295,-0.01173189890974786
37.88,-0.06498229510346426,-0.07757066479240501,9.879101010946382,-0.003571445639454738,-0.0006580088682943566,0.024461315634879965
37.89,0.15586627177732115,-0.17151919585033898,10.067241655305269,0.031756766450498075,0.01930176178727684,0.018950218380791847
37.9,0.14694257501879746,0.26706756481686583,10.103837433096604,0.02652935438308724,0.011465453476869381,-0.010842693557291618
37.91,0.08367103415895094,0.2959715808497017,10.18366490162734,0.006883192095980907,-0.00963841366530283,-0.005235372552984763
37.92,0.2432871922349174,0.10981321170281097,9.827540490228378,0.004620844828869826,0.011193059410585226,0.0024772498241037587
37.93,-0.03610006109711201,-0.1788140509609389,9.985441096248715,-0.010700895839188897,-0.010059231793812391,-0.01410177473172573
37.94,-0.09191094409195101,0.001481888021653474,9.859131825246815,0.013529824163329875,0.018162301871974495,-0.019259510113602378
37.95,0.32100980393940703,0.1801722209661402,9.777963374562875,-0.010155225696315783,-0.009976735362599529,0.02724978577569651
37.96,0.047509874379619725,0.3090999781502634,9.9422146841422,0.025879522784264884,-0.009498786109424302,-0.019156273032528946
37.97,0.06435350290923719,0.24099804148803589,9.912822065088372,0.008487755317200146,-0.021539730669013792,-0.0008149652004940724
37.98,-0.1522009129470853,-0.12461185630138354,9.743207811144151,-0.004644104969506993,-0.0018160333260027034,0.018493388404956842
37.99,0.14515778895430134,0.015284406321536137,10.067004046185572,0.02105651933401035,0.008884406231793703,-0.02121932135697418
38.0,0.028834678912057803,0.25836788045256825,9.773393047386252,0.023748437122271773,-0.028528571430902816,0.022232456999861483
38.01,0.14504554186997318,0.16408833348628332,9.552170928754537,-0.010896030917225878,0.002102156810976597,0.022205783289836762
38.02,-0.1083381831044044,0.09881400011213778,10.030624133321101,0.01223573383367406,-0.020786135611186446,0.02206471708861626
38.03,-0.13281002551523013,0.05431045413547773,9.237138218825175,0.0026085030629929354,0.004706009688388625,-0.002587528183107156
38.04,0.37054003549071596,-0.1925628022634978,9.849021430841956,-0.005132925783828119,-0.0011744540509056472,0.009552593699475982
38.05,0.04455661587094096,0.17506918771907468,9.49514630828953,0.000982737442550046,0.013777073495722695,0.025386989123871995
38.06,-0.001533428056615622,0.1139865965152335,9.47767445388604,-0.0013684153198697407,-0.030050774892090924,-0.005779863285824156
38.07,0.1415424433943176,0.16601417453836806,10.021356141931207,-0.03365162939405981,0.005775338437962486,-0.003792375139386958
38.08,0.2941742087427286,-0.12982923636980795,10.098079372524841,-0.002713552208016792,-0.03492580638603992,-0.006654080131212869
38.09,0.2079605320408564,-0.31542367032753704,9.546016835561664,-0.031934046656345264,-0.013685134073551982,-0.03282648068502652
38.1,0.1267391424808925,0.10555301381912557,9.687680958901767,0.04350651989223799,0.03469602317824355,0.002160025972178245
38.11,-0.1950826060715868,0.32262649775786056,9.881335105327445,-0.00010911925047726324,-0.0250923155997737,-0.011088628242135705
38.12,-0.05526851396914537,0.07865618207864557,10.148454200362488,0.0029111641293376148,-0.03132925750098034,0.0024311206405760923
38.13,0.07659393710467544,-0.17487824814904845,9.38559199229313,-0.0013206984353866002,0.011447157362365842,0.012656147654728044
38.14,-0.24137272997866854,0.32373457026931707,9.754477066767437,-0.024916700375170412,0.01690633223212464,-0.0030416686263977175
38.15,0.08840746573192675,-0.013241097646999109,10.03586266169379,0.024295561617326513,0.040854293064782936,0.002231515209248305
38.16,0.21039946830146147,-0.05059965052564417,9.910853833823955,-0.0073107024105827185,-0.03022564877667215,-0.021977438319014716
38.17,-0.13821908626000695,-0.17781797361180335,9.897045331195393,-0.017226482119688077,-0.0007037764411020763,0.010303556879809503
38.18,-0.022177225289952196,-0.09572805813591716,9.805866738172414,-0.014324803292968587,-0.003512100243456254,0.005151105758708922
38.19,-0.03744792306610097,0.14827184228760112,9.62746875542676,-0.01799827197072014,-0.0029552280547622445,-0.026337354448286526
38.2,0.1827399536538709,-0.009809412262557786,9.751560012056116,-0.019609597062791105,-0.0005672840122748051,-0.014380672317735106
38.21,-0.031429019473741,-0.06693928707849539,10.21732577815665,-0.014240665372798505,0.024341460561507773,0.022759508603648657
38.22,0.026314949929015098,0.07780889391563776,9.638896632832381,-0.000670470600017901,-0.0032128159912652686,0.0053984948730098955
38.23,0.0048609105086162546,-0.12984318378010684,9.900644891008298,0.0025089721201549094,0.014737038375982732,-0.03590415605937241
38.24,0.0382660021668554,-0.030995397167270747,10.175009019872668,0.015078769214210027,-0.02953296059355305,-0.009419010229478742
38.25,0.0315552963737072,-0.0339917939772429,9.918505828257151,-0.028031889030487124,-0.017099101934188628,0.016401360062128282
38.26,0.0663677220572182,0.09339573803014438,10.234222669648865,0.012561038638400966,-0.03523915677200209,0.021315640650855765
38.27,0.08675819984985732,0.015333596756105615,9.697621761180505,0.002919362429909491,-0.04466327509026925,0.014360082415623159
38.28,0.085775708720136,0.3162706334209364,9.930585334930589,0.028266952111868953,0.018398458755979837,-0.0015204973540930175
38.29,-0.023877804544981247,0.010094650497232802,9.355990613861588,0.0004536213840048696,0.0207017778825749,0.012011109932850886
38.3,-0.3888928754460666,-0.30034354302032235,9.585710030272523,0.017341524354567723,0.027213906419546723,-0.004076017005273765
38.31,0.13929220151586538,-0.2604681179387278,9.604138070524215,-0.015212143283012047,0.019167284570652535,0.027831295207637365
38.32,-0.1248265007833133,0.0612625514651557,9.712688678277976,-0.003978192986814228,0.007413704700519907,-0.03969727326391159
38.33,-0.12067809258177793,-0.03915201489530575,9.750551109065762,0.017788625358678093,-0.009714876942315815,-0.021091723129684593
38.34,0.20407529721594084,-0.12028485002666049,10.09368299759791,0.005104397332722319,-0.019057181459237262,0.00802497253493824
38.35,-0.2636449924282494,-0.015246660578272078,9.941275472481838,0.010744808851381375,-0.022729042918500718,0.01453961981216463
38.36,-0.06393796997101311,-0.01828260740038801,9.868966788517845,-0.02437352314576986,0.04349405827308732,-0.0002878372806440678
38.37,0.05657407163666358,-0.10340491792667605,9.359009306730352,0.004056803912225817,-0.012441582443791843,0.008097746267589136
38.38,-0.2522609289970028,0.0195433381554308,9.753651562161632,-0.022568538112373426,-0.03478854925057379,-0.0037985244606019656
38.39,-0.10539239676387245,-0.02096951004133686,9.707843755613661,0.027310039454946002,-0.024732148550117516,-0.03253962474214104
38.4,0.0019419839286108729,-0.21549254598107723,9.804539640497229,0.012091188359558715,0.009693501118871049,2.2006728065763323e-05
38.41,-0.334718034598887,0.03059941934178545,9.461768882843177,0.0710207055789241,0.008876113255459846,0.000267699137966118
38.42,-0.04683426829277993,0.019595808373433214,9.590063579459091,-0.002018567729016305,0.03927863638946089,0.018370929070634194
38.43,0.2722988707525398,-0.14492547550941018,9.839958655104464,-0.001521429120391344,0.007599513381941144,-0.028553081279115856
38.44,-0.059462491232495564,-0.2239838566641621,9.786459616574316,0.05157956938761846,-0.03755695220849082,-0.007756045346833357
38.45,0.010147702334497317,0.07158353510879259,10.005075169068117,0.0012732018171697872,0.012781972399831242,-0.03052477720045815
38.46,0.1291696000936533,0.21587442143259686,9.955753880651088,0.015486811346792934,-0.016656887378328558,0.011386750461903697
38.47,0.17600829845584534,0.07848159442006059,9.743824322063215,0.04280803680802584,-0.006371912640953452,-0.00594276147823661
38.48,-0.07856841722089741,-0.002676767924225561,9.87014652512664,0.006592125413259196,0.013387710317562978,-0.017695397799370943
38.49,0.05955677928153047,0.20178589903465347,9.746614608618385,-0.007650537287991319,-0.007960054496473126,-0.018235878333345626
38.5,0.2903168005785515,-0.02547247135630805,9.850020002967991,-0.009401569241319168,-0.00706612331623798,0.006048470208294786
38.51,0.055670361264451185,-0.0012027843504809265,9.918437030486107,0.0027748040411121515,-0.01163064222000687,-0.0038430649338073155
38.52,0.06082874021530626,-0.16113656952704067,10.001756497974863,-0.013191403472621672,-0.019589212262559105,-0.021264981429356157
38.53,-0.16226870529276816,-0.2276951489540621,9.914985232274159,0.017923422060492383,-0.019145774425324627,-0.03280555865259299
38.54,0.04266894184792692,-0.08359887633462897,10.029013628787105,0.0036780763525239867,-0.042388092758531566,0.004844217347164077
38.55,-0.18833966340075725,0.14900539293970724,10.017840219734849,0.015338059213865258,-0.0159962632855097,-0.01689397331705297
38.56,-0.03494157344113972,0.10460661931384638,9.870149954946001,0.0011967516575320037,0.015948504918597336,0.007863164481554897
38.57,-0.34910289826976837,0.30980177463097924,9.759977411453622,0.040861042088243545,0.015888684803938704,-0.03546183699631147
38.58,0.15864226381916158,0.10999229723172364,10.066805313805958,-0.02171939294719842,-0.001231962001194639,-0.010078851032810938
38.59,-0.13065850577984545,0.13851367883231483,9.370796231362913,-0.016596231052841713,-0.005016620864698338,0.017340365735060766
38.6,-0.07410676647573743,-0.09027947086508863,9.476132167275336,-0.03047227246030464,-0.010048090250628772,-0.05540503233427642
38.61,0.01219407442875898,0.10650279900032562,9.680097543310211,0.02129900133519017,0.02078460495401012,0.0007063433144881881
38.62,-0.3816673152778334,-0.12660645651428862,10.055534441042038,0.018270324079403766,0.0049222961319315035,0.005276843094361299
38.63,-0.059011768796766936,-0.07336882927284955,9.690281140926384,0.00017364016609052658,-0.019247502344268634,-0.03065566714413457
38.64,0.14105754057657663,0.08516286120726478,9.796554162749283,0.0049139645051550105,-0.01737717761826519,0.00012499076997508866
38.65,-0.26161770848167987,0.0895967503702718,9.916133064637755,0.03669876455794756,-0.011827574011888916,0.026295482749758226
38.66,0.40770507571050824,-0.08827689441315727,9.553914973837706,0.013010103393530268,-0.002845295176370022,0.01672807743445784
38.67,-0.04853015511552624,-0.12094793210644056,9.959885697113862,-0.03574741021460432,-0.00292232701087359,-0.000801631222419356
38.68,0.10294433296893579,0.07182093280100552,10.077559691829748,0.006687199218215393,-0.016208908031958173,0.007848967431586095
38.69,0.18557615088426965,-0.3964624095702942,9.371476694044226,-0.010050922399683025,-0.013929625776784454,0.02482425132737894
38.7,0.060289635439138664,-0.23724315309828617,9.559298706884848,-0.028122191754177458,0.01975348400927498,-0.0011234913475341602
38.71,0.21808013456052538,0.19552070973517158,10.042498540999611,-0.01376303869235757,0.013758586809000925,0.013434736521778753
38.72,0.17733269334202098,-0.12467446901564704,9.695830173701971,0.01550935293437102,-0.010651342934763022,0.019777013392832915
38.73,-0.0860199999245248,-0.07214303896088718,9.825338444200943,0.015201500071644806,0.03122449177229134,0.007199278626481088
38.74,-0.14867662498924936,0.059324778032016655,9.710236012209615,-0.016887714900584553,0.028048599472776943,0.01813209623479071
38.75,-0.06613868599419404,-0.23771053312744486,9.649874311289198,-0.02208292657121076,-0.014695067693613888,0.00342183349819773
38.76,-0.4000472910679379,0.0033394628475356186,9.868418875969287,0.015615248627690443,-0.001324866080012609,-0.024860242649191105
38.77,-0.2835151448021491,-0.28283991116353774,9.499794228154736,-0.006590467149551764,-0.011534808983009688,-0.025577215888660715
38.78,0.29067616917690386,-0.011807863830292736,9.912129392107305,0.03985961162916303,-0.017550569446455087,-0.0020923744844170587
38.79,-0.01841310893956185,0.11799056560383121,9.932991072390935,-0.014553149030741981,-0.02490230728658835,0.004078026629757838
38.8,0.017624871550843572,0.008683857085517964,10.037009235718601,0.03888439262503803,-0.037241037334072045,0.027452666062225604
38.81,-0.13672718599384243,-0.026506820136772642,10.04357562583921,0.00292736279748132,-0.023367094021757934,0.02039664718888161
38.82,0.40413161941664644,-0.08565039061092947,10.039654622302564,-0.00890750080229273,0.018425440310572395,-0.010040884767752273
38.83,-0.06121626527447997,0.03627311282467645,9.947742033340663,-0.05836528364443975,0.002204011942511839,-0.00423721305247228
38.84,-0.006668473838144351,-0.016388432700803694,9.71984720583419,0.007151943410529995,-0.021121060437919417,-0.00429598567792773
38.85,0.05224151387687318,-0.18753708325542406,9.713452902877036,0.004011296663762419,-0.022559502689528665,-0.029893094827939514
38.86,-0.045973969076150235,-0.10437358397475084,9.847177554822169,0.028037493273362635,0.006827768570681241,0.006102324951325526
38.87,0.09299175890576057,-0.0978811491379383,9.762506504045044,0.020834564401670485,0.02170283794636371,0.019590195883867415
38.88,0.32254742461896646,0.005611554023606529,9.836476058825095,-0.0016060686542030212,-0.024692845949851865,0.02623711780804558
38.89,0.15357554660799608,0.026316579023952735,9.649535774564281,-0.0062064654856119955,0.002207893714799845,-0.005120597993698679
38.9,-0.05607733667686361,0.04063905192973842,10.105472056988024,0.002938257129002689,0.014047157808723527,0.009639915481268841
38.91,0.004001582896798566,-0.13089849780094767,9.55299662576352,-0.0036232245843856267,-0.01480517312772188,0.006398123619093764
38.92,0.1710721800060265,0.047310132277956315,10.060070690695055,0.0036852516697805024,0.0006408680183622632,0.009920218050471852
38.93,0.30139205008886755,0.04082680392488483,9.988046752762454,-0.005048549298662087,0.010972182143534931,-0.0013948506205860255
38.94,0.09458513009568784,-0.12085872976773329,9.494085132642502,0.03219856983841513,-0.026932436046599905,0.021219994401030607
38.95,0.09370692528453688,0.05412856065383719,9.784392927055212,0.010339978921215878,0.0013099344013489914,-0.014531618618990723
38.96,0.20707542906196755,0.33762605171629106,9.857649897628217,-0.019981487661832758,0.022844620651305866,0.042111437783571584
38.97,0.2814760200647246,-0.15932617592049414,10.067676590683432,0.004723211774126575,0.012675362889967942,-0.008776943246641706
38.98,0.0989189401368862,-0.11391914951524908,9.762946211276752,0.020219492071447433,-0.019372415555915207,-0.02885219944032642
38.99,-0.10794293346008908,-0.20144309427544044,9.692213817670215,0.005285694080622537,0.036520217942443714,0.018856370961621356
39.0,0.004760585076002263,-0.14422360971004727,9.53074961607335,0.0038643652105458262,0.022726089552670612,-0.007951586020554952
39.01,-0.29007018121432837,0.09159268850333081,9.581265116750838,0.021155765428146237,0.002358709232804839,-0.020247090419315904
39.02,0.08280737260965068,-0.0379657011176352,9.725695866232453,0.037971978569488474,0.02618818531193346,0.03439924956182521
39.03,-0.23056050495199343,0.020306429943612276,9.76107936912095,0.061661374723208755,-0.015873522336069867,0.015437608241297337
39.04,0.28609617376839674,-0.3019582199218841,9.312683029094492,-0.011737448976293008,-0.01825759625103305,0.011610512080921035
39.05,-0.09067717605381484,0.17511828360693737,9.597854721552839,-0.01239471955452614,0.002230540445074395,-0.03838153591541658
39.06,0.1334653690194789,-0.02171487886497838,9.800248510366309,-0.02037870113830956,-0.006169329141035322,-0.011974657124692976
39.07,-0.12168759947620263,0.06476490546330939,9.540590993848014,-0.010978670370557617,-0.011610571882102298,0.005402752421925408
39.08,0.06517463087812464,-0.1493457962146129,9.946252771357438,0.013530414719684278,0.030119127070284066,0.013544242211315451
39.09,-0.04378243310134363,-0.0125114467592378,9.68304304396706,0.0011838080532476924,0.01578044492299403,0.007517362440138252
39.1,0.1154506493357938,0.0010402361282620867,10.036750157405667,0.0233175595177791,-0.019012908559593172,0.024102077879716
39.11,-0.32932517028211816,0.034762064997649986,10.076537671924637,0.018515304898466225,0.03699054792127408,-0.00896271823910256
39.12,0.030837785300607618,0.2255119122946711,9.426632072588228,-0.01909757201469933,0.018309072087144756,-0.01491089630954624
39.13,-0.1328304533308834,-0.4111509032143347,9.82630861356103,-0.009611882090084331,0.009418757404604327,0.013923929207027445
39.14,0.06775002033880043,-0.22446388012616098,9.9266991880529,0.022940405146953804,-0.017155582332434242,0.002251750982930498
39.15,0.1804113501972636,0.1504859354659815,9.995010711946659,-0.014202694356065337,0.0034079019904965585,0.028546663215663338
39.16,-0.07897293378133308,-0.05742516374831686,9.72050306120011,-0.022582311860368014,0.008220040193662636,8.416740816929596e-06
39.17,0.15505264134693258,0.014176694441746285,9.116779712737342,-0.01964700808363091,0.02183374907487507,0.005649994070800693
39.18,-0.11132196938781784,-0.13340715276413154,9.463688539117637,-0.01447137546465653,-0.013279415977992034,-0.028832838968650135
39.19,0.039506575836284044,0.12233358139134809,9.817510892276013,-0.01658121471918301,-0.007306127688166011,-0.012217887905176647
39.2,0.25437729776911705,0.06174132714067786,9.962572376945362,0.0027935816299521164,-0.014792004677774029,0.011267253473097887
39.21,0.024266793420272822,-0.37548378323935255,10.090933495815381,0.0002574023844967279,-0.019259041830544596,-0.013467345795595748
39.22,-0.03142759077253084,-0.03418755409634019,9.670225278261475,0.02674376414051904,-0.023233225813822818,0.027247177831923073
39.23,-0.22747459848833987,0.009187954032721457,10.215981967141543,-0.030804586321668586,0.012124907691979483,0.043824707613336115
39.24,0.13050540220646978,-0.5404468748200528,10.094564688213907,-0.005661207689164403,-0.010654774956349988,-0.004492510296034194
39.25,-0.10369099296071897,0.06612836684565984,9.645832138971961,0.015168282180819694,0.04468172877618274,-0.006051752639229303
39.26,-0.1951622036559227,0.1277907517502224,9.728527256576234,0.024487599222207904,-0.025292213648091498,-0.002280134247156644
39.27,0.16460172474636936,-0.212530494062923,9.569240022501255,0.009540866046383968,-0.0038134186550198164,-0.0245095717452743
39.28,-0.1540323703203631,0.06486641552543819,9.621430305807161,-0.03467455414447235,-0.0033526329588017376,0.02454617187252503
39.29,0.0548683946795099,0.09743622269695253,9.786720732290346,0.01226272429710492,0.0024952982496514076,0.02121104285695069
39.3,0.00490909513869608,-0.31664835358939414,9.8587405876183,-0.011501488712904052,-0.006723835979208492,-0.01309987955177054
39.31,0.17983228105184174,0.10831280209408611,9.966646424085932,-0.013450759787637162,-0.00047002088123660943,-0.012807669698208695
39.32,0.22974689183729696,0.0024748003844299892,9.7589091831293,0.00283265632716072,0.008312833662565898,-0.00391935918488821
39.33,0.16612003137359935,-0.12866433027767005,9.90958523378898,-0.0011352623404330608,0.043380020713329824,0.02194435662233659
39.34,-0.23323306990268688,-0.14338665234724504,9.961343257908894,0.0016061027747534392,-0.019818885099123964,0.03287123693124241
39.35,-0.09878320082639772,0.5468300445150875,9.65181094386094,-0.021778530144604978,-0.01607317067546674,-0.010772706646229917
39.36,-0.11284215034663074,0.02676585579195357,9.779778178388122,0.009345820685057326,-0.014438658611314782,0.0009024585788468518
39.37,0.20462236651855953,-0.15264755608563838,9.879653622250558,-0.0340510872848184,0.033739344323640674,0.019823941778898034
39.38,-0.04636621975752826,0.02563708972731346,10.1797531254732,0.010909309084660113,-0.013723914230410523,-0.02169287328715133
39.39,0.011369846149075536,-0.03203058283718734,9.517245525993305,-0.015654495073899325,-0.007974741520800098,0.028368620815988333
39.4,0.1016931874275403,-0.19604392972156912,9.77028197453759,0.006395926722337263,-0.016800852388656556,-0.017732860856995304
39.41,-0.06876934664077172,0.21327562765992597,9.72891390174028,0.03392451245551998,0.03570443114755797,-0.0005022070646030312
39.42,0.16194450690518736,-0.11739634007117246,9.778992573664791,-0.020526067581780976,-0.0256844174108698,0.012890745045756446
39.43,0.18105940654425956,0.09470143449610534,9.247123129360354,-0.01696486482592599,-0.014141864042528056,-0.0048788894222629945
39.44,-0.17760845376859813,-0.08429967507842483,9.588153051419692,0.00994009690064702,-0.011084065797971533,0.002243292943929672
39.45,0.06943311818245017,0.14374827148698271,10.058582195848535,-0.03822581439854638,0.011685474449551465,-0.027485040836644038
39.46,0.060104837372686515,0.19428627866501616,10.115663581317866,0.010365813030832461,-0.009303643419176853,-0.015588463993307548
39.47,0.04767748310004752,-0.011069768408696369,10.088561392169561,-0.028213612099017057,-0.002357179865980844,0.020531632730054896
39.48,-0.11581033598457773,-0.06308015575527717,10.129534557980286,0.0033055767096946847,0.010684870920668046,0.019519951743068257
39.49,0.16038766011850342,0.250350738342794,9.824304352516297,0.011269145317319243,-0.007033695508624496,0.006764149712648007
39.5,-0.0915608611886181,-0.20242868096430683,10.068321958900347,-0.05061307034822499,-0.006853428583663882,0.016349952013050322
39.51,0.23902067234314645,0.09427826060104348,9.263251551622167,0.00823341377332363,0.008784742794318994,-0.004725675177549756
39.52,-0.17146013932428922,-0.3300675383876681,9.403424940296203,-0.019524910443811806,-0.009117214042361852,-0.021078962356508767
39.53,0.16645552143943365,0.16525499422405981,9.57385369616072,0.018123718123317135,0.018446214716011024,0.005239731815255572
39.54,0.3118660224056665,0.08687064240183029,9.719433254854165,-0.022500912604023003,-0.0036756795908031636,0.02031059020606712
39.55,0.13507306924899054,-0.17718088867484716,9.943540974653091,0.07513558730042981,0.013978571963947502,0.007775909255805901
39.56,-0.09296696749888955,0.018072380428788903,10.292701919574256,-0.03489120542756947,-0.02613971067100309,-0.05005606711373023
39.57,-0.03935271237726545,0.3406058412693392,9.544127869506392,-0.0048148670471858356,0.004342040141803263,0.008706476925294663
39.58,0.16431781680727203,-0.17157950094643928,9.54737549488018,0.02011801174732463,0.017491343440775766,0.01304542041600059
39.59,0.3760608552962233,0.03428439335001953,9.830167442689183,-0.0073112240753420415,-0.031453969367190845,0.013526744917898736
39.6,0.09200783688847065,0.1240229000894954,10.091120429510879,0.006881802321580211,-0.016117637603899095,-0.012740358280442338
39.61,0.24524897539311602,0.2460776105129976,9.664155075495437,-0.0026983220097369057,-0.030810012828525708,0.0038686461975926327
39.62,0.0018680909754129735,-0.048491659314927237,9.408688294353523,-0.0060783221399421244,0.011903698766602354,0.0064562940225243795
39.63,0.20638565513167967,-0.15149175909193832,9.477431346487906,-0.005192286389046791,-0.007404051095117686,-0.006632021477825091
39.64,0.1819044177067197,0.05281678301519671,9.33324140344702,0.010388417104526997,0.010601063785029315,-0.006038472296322921
39.65,-0.22569889300994148,0.19756560985743418,9.671766283412746,-0.018328102595936417,0.0014118097274000703,0.011613628878513043
39.66,-0.11350869429883713,-0.08646292428244899,10.150655608234372,0.0038581095126386904,-0.013911133693248786,0.02190158007052204
39.67,0.09725896606140554,0.15955304702951564,9.98105194710375,0.03262645706704443,0.01382652098568445,0.01575086343589723
39.68,0.0663341072885536,-0.02977933110120781,10.06584459910271,0.01907052589185071,0.0029683681686671812,0.012747394726470875
39.69,-0.06784333508565209,0.24846392611205712,10.018805643609577,-0.01294594236938905,0.009856015063911552,-0.029303688724485112
39.7,-0.2329441941590145,-0.1973183318207025,9.88113216605894,0.0025317181042361658,0.002552068635318682,-0.015194801624215057
39.71,-0.1764948887426542,0.08866320177396832,10.307228617737561,0.01839159350173643,-0.003398870060051608,0.0387462007130342
39.72,-0.06473081620447914,-0.08665460742229734,9.81591785254894,-0.02283108286644949,0.0074625085365065905,-0.024089623850819235
39.73,-0.027715917107156877,0.151301592626977,10.275939141990081,0.007460655614031689,0.013939849069594126,0.005550222203665151
39.74,0.07814829033236491,-0.19977062851065508,9.939742300383303,-0.01818221233111517,-0.034718824490262624,0.02276337998492381
39.75,0.09028354058849317,0.037256373956335666,9.623823464796395,-0.01591542008510159,-0.01917848275003399,-0.01779742109330694
39.76,0.12995410837584814,0.31518781001031165,9.485339772184894,-0.0028125005606914424,0.02204173674807746,-0.002594480728505561
39.77,0.02824868698001112,-0.16691133642222342,9.933338964929055,0.01155196830971569,-0.007238641990651623,0.009724689810856375
39.78,0.06260814004321814,0.10236363690963171,9.89323763544493,0.0026225195167309174,0.04485807005427493,-0.023845056254762492
39.79,-0.033558875229257226,0.013994980919559958,9.93384104357034,0.009374834942325178,0.0303401189811516,-0.03362160037893306
39.8,-0.046655422367029215,-0.03619491459995865,10.202362408927883,0.02174011931085606,-0.01702243336708243,0.02373033661297233
39.81,0.0001386676594717814,0.13069127199773434,9.838223582306805,-0.031793017115583314,0.0014443734721375375,0.020095766337584944
39.82,0.12614046556192232,0.137362291503664,10.057737700901022,0.04729023757837994,-0.03837202131575635,-0.0033809786234794844
39.83,0.14427754875936435,0.2930045696807921,9.907374954803565,-0.03257317286551112,-0.02177528556390411,-0.02814205172107361
39.84,-0.0820508300569527,-0.06516562972740224,9.868670930080123,-0.011292919482267773,0.06551099364955346,-0.01949323943973814
39.85,0.07746499953848221,0.3361520138058504,9.730220760459076,-0.0003374773243567698,0.013732622807778483,-0.010155050409526651
39.86,0.12370143346236902,-0.09534594111506953,9.540605056566944,-0.005084102700527095,0.030727358968279942,-0.02160420086048323
39.87,0.09399184684223529,0.3388518258861431,9.710736261032418,-0.026727048354066286,0.01370068676564658,0.002605756061176219
39.88,-0.009519881073691156,0.03215658813465882,9.56035200438995,-0.008385233559014165,-0.003100967693316821,-0.004045064659794757
39.89,0.04982743445577964,-0.009444299418983905,9.533411773724643,-0.002874076260199813,-0.018646644123784917,-0.024243890487701182
39.9,-0.14412624544703556,0.0005463546232610268,9.613676546833489,-0.007538121130152212,0.014179228969164974,-0.011592966901750773
39.91,-0.39299318694935886,0.13544900297821583,10.011742230544531,0.05605433273849805,-0.015916764506424482,-0.014361228720772312
39.92,-0.20085786793520713,0.14274178543810542,9.803343326551518,0.0017795933238991348,-0.000735687985708684,0.015449562255730957
39.93,0.021083859418951557,-0.042774827780031686,9.753900690919199,0.04509148311581748,-0.07661355411860812,-0.011110910070255326
39.94,0.12110264064030385,-0.38582438864941954,9.938687297535527,0.01528785435093659,-0.016180401715332707,0.01501755176099383
39.95,0.03730624119183231,-0.3091896161225593,9.986238135355554,-0.012608029763272969,0.001937487404562684,0.0014006440022652927
39.96,-0.08799152352145607,-0.34658583371519724,10.032877532733558,-0.022203446422401983,0.03667149476063314,0.007944425321181451
39.97,0.30510622313196006,0.1197250627187545,9.801926831243147,-0.04988123870682608,0.00931934973436121,-0.024402509480325157
39.98,0.023628569239647526,-0.03215982054109809,9.972576597827812,0.024376612308498784,-0.011677116455433872,-0.00034599528508599776
39.99,0.18229489675704674,0.013063575276208276,9.81906942179639,0.004835224197396682,0.0075848292790241505,0.008008348825834493
40.0,-0.02827530023293633,0.029198090963711638,10.013510291164922,0.014190986905413629,0.011880155164333477,-0.019073361878507368
40.01,0.214700289308239,-0.28998371097690573,10.290083274069815,-0.005940491009287421,0.017557782402153287,0.007476087773275803
40.02,-0.015480745370434845,-0.04394995728673564,9.76335493377135,0.01253619023666526,0.018886238284140554,0.01018230156259465
40.03,-0.163018658777905,0.02852713634566158,10.059548383944207,0.031454301862665665,-0.005754958458073557,0.0016059866512095507
40.04,-0.130713157203229,-0.11682261536601389,9.68235367383662,0.004351504595770676,0.024849144476583478,0.016240864080354547
40.05,0.16346600103083833,-0.1578967038010998,10.006932770772154,0.02628476014795666,0.03906796788620437,-0.009661231425920772
40.06,-0.10136625660000546,0.0836756340072847,9.947871473496223,-0.017876783434023834,0.004681732549654262,0.006698651171273917
40.07,-0.15760620009914095,-0.06922634118821912,9.606439498644958,-0.017360353055202643,-0.0009116176078158235,0.053910816367514706
40.08,0.14502526830653006,0.1530595661555468,9.356474690806259,-0.0025922340061424283,-0.0036158927087849052,-0.04355471971818208
40.09,-0.3484306574866765,-0.0491121448851183,9.78472008781473,0.03536202740028949,0.0029135884647387422,0.027124183629726045
40.1,0.15117601712965037,-0.105514762056972,9.760065844822396,-0.02694108654905395,0.02725575219326465,-0.032616396378287685
40.11,-0.11480906463309241,-0.03937532930380499,9.630055990079315,-0.015317822343175367,-0.018532899521273877,0.03496939514757932
40.12,0.07179213741079292,0.2447060489650362,9.978975653689266,-0.01817713422752539,-0.028723870527336704,-0.030386057811776328
40.13,0.12094828826165985,-0.1755449994802101,9.761076712465863,-0.008073381253414592,-0.002586031242497553,-0.006101307770522921
40.14,-0.18144654857666348,0.2748598859491435,10.096689668157097,-0.02286583657712453,0.008475315771507824,0.010029437856381773
40.15,-0.07546016314087951,0.04920947282349144,10.191778263593791,-0.0066982050042767895,0.005872952495061486,-0.004497552507045424
40.16,0.08284127760098124,-0.10214037289632524,9.675876141731978,-0.00672754485412935,-0.025524228794060033,-0.013050946545149784
40.17,0.01691499843365101,-0.04374105495206901,10.020528580116853,-0.008066223680715684,0.0068381814409783715,-0.01839387038540196
40.18,-0.11174007030793502,0.01710216518131464,9.627798969035466,-0.023407427273008895,-0.0014768987099948322,0.008197508711931702
40.19,0.13197329078441247,0.3296093625913536,9.739850978359328,0.0021198331257806296,-0.0018952850001081086,-0.002043841290512758
40.2,0.0023911396203747095,-0.036036452447613235,9.727612603546309,-0.012965834263985072,0.006227968871944191,-0.01763517288436745
40.21,0.12082451003620268,0.1257987417039616,9.659532522470771,-0.009682327251264588,0.007964757252889414,-0.003253904649411281
40.22,-0.07662568356330432,0.30587494368999807,9.582713364497538,0.06085853393174841,0.03405237079203176,0.029590462556713732
40.23,-0.12836348699265357,-0.3323628926734269,9.730971318053868,0.025724489346718272,-0.0008949005636320475,0.010881169249854234
40.24,0.14570543946789227,0.12735552541180944,10.073791213585764,-0.011014860669333161,-0.0011663897392553465,0.028744822132226625
40.25,0.09216258658658838,-0.14604794757618356,9.58818284120193,-0.0036023921417561444,-0.009882092338946453,0.0037317338547289193
40.26,0.1495595799798944,0.07291059887449046,9.507291171852485,0.006483805468827678,-0.024086988883132595,0.003012719147639825
40.27,-0.010972525594303074,0.26112307395626183,10.035958860313745,0.01021345996141809,-0.029695325711940376,-0.015203084613210781
40.28,-0.1841774846319586,0.060926908109358024,9.815455017743394,-0.02897198554656995,0.012528912997384128,-0.030417607232872464
40.29,-0.08680408370053494,0.08943307872253486,10.093718187078647,-0.018357281700866104,-0.04123876607127477,0.013120631484172352
40.3,0.007526101572794281,-0.007378611141289352,10.037598675119424,0.004382965380543237,0.0036121395796874446,0.011603325497073253
40.31,0.0018196871465430502,-0.07458451915555193,10.029468658755192,0.00016738577419782373,0.03710025345705498,-0.0029726254891460756
40.32,-0.025989674890677612,0.13047759638996087,9.861577235184033,0.013789382448430828,-0.01750006625428086,0.01827614155869151
40.33,-0.1152338981803938,0.2716055356732139,9.921294560593852,0.012874875567716855,-0.0016322026580573347,-0.027266063086064427
40.34,0.0933660537388022,0.11870793416533303,9.631931202191375,0.0033686017424880053,-0.004350869143427197,0.0044303309781441305
40.35,-0.4271050214383706,-0.24895912509442789,9.52233019740177,-0.018233788744166247,0.010576342427398393,-0.019394107076447537
40.36,-0.02374711162181997,0.3525809075566846,9.600854271769288,-0.02218609957120242,-0.016467457166526117,0.015522307869956287
40.37,-0.2180502691898864,-0.020992429005309916,9.875075830310173,0.014617660822562528,0.047431061096826314,0.005885333816103377
40.38,0.23959523558189127,-0.0703896458816446,9.619045325062924,-0.027819053517493683,0.00326769523895415,0.012711262909944551
40.39,-0.2053372326615942,-0.22660235138379012,9.760008319614151,0.012526954055080013,0.0015557061454979223,0.0026230993771086493
40.4,0.19777948718151553,-0.3402184029172916,9.721723143036005,-0.031771384866867605,-0.005623240377076694,0.02138460281068409
40.41,-0.21064779913877998,-0.014808024046990335,10.039655448002744,0.028855708635048966,0.0010487621640166772,-0.0197152358548181
40.42,0.05855887471079338,0.09683072742792559,10.021254562745543,-0.024493754365979694,-0.0047054950859679485,0.03432331605034872
40.43,-0.005214529543019773,-0.09809337187423874,9.718706599930325,0.014985844872551798,0.01471122670041804,0.04152607927422349
40.44,0.07747138647059874,0.04269982095766735,10.082087274764271,0.05979652957881169,-0.051127800557279515,0.014743933441269504
40.45,-0.3266749438505471,-0.11899544436734297,9.409302153137745,0.010284531723168726,-0.028507640118777877,-0.010088913786984531
40.46,-0.139607068623758,-0.23395766161089585,9.510018946309467,0.007055801166445149,-0.004850296456890204,0.01780333538045364
40.47,-0.20849682617822612,-0.15571052381757525,9.797582214753877,0.01146253778709774,0.0007441244075590458,0.004442694370693472
40.48,-0.04262787992223926,0.16061499050427833,10.135634683500175,0.011013177591036653,-0.011603609342877835,-0.010133240065224392
40.49,-0.11446465482018556,-0.20131583653562254,9.205281584654863,-0.029314109614998057,-0.010958519642645503,-0.0006393734137756501
40.5,-0.14800106308690197,0.09765821055168034,9.682020664613491,0.002855643202657799,0.020650548332453923,-0.028610825734865872
40.51,-0.14016807381847063,-0.036144478586192026,10.057975685834645,0.029196528325369096,-0.018411963105810798,0.013878794336921779
40.52,-0.33350675152071596,-0.18170238445200051,9.672123224766057,-0.013674772976901362,-0.03211746789729461,0.023604121496105794
40.53,0.08513990889170878,-0.23915442882660234,9.671051114789552,0.007990121297855646,0.023446268968434734,-0.021848648403566262
40.54,-0.0012555965110042282,-0.023518510572902294,10.412124394215532,-0.042783199278683605,-0.008844070496654711,-0.010260022735319316
40.55,-0.21753978031577717,-0.0005201122034264185,9.582620516541676,-0.0016560728894612709,0.02781028401255353,0.029676622551900463
40.56,0.038665169488863976,-0.006333308241077919,9.324847151714195,0.019880957149871255,0.0006940817057056368,0.014811748634949341
40.57,0.2846395456814232,-0.2423951461595167,9.744852783500976,-0.010025842338138361,-0.012241538479759366,-0.011299969551791826
40.58,0.15623943368781207,-0.24689978080876254,9.86768268617289,-0.015331911627763501,-0.004428183251769774,0.032791890142706635
40.59,-0.056395508828993496,0.2506799516385936,9.68008190499199,-0.01486545515522846,0.02985992357748898,0.016392818704759976
40.6,0.13742031426854703,0.18906118435233615,9.617838694112548,0.018893017133775794,-0.030523279264825467,0.0402913226411051
40.61,0.070522187463316,-0.07675036891549768,9.927038254492697,0.010143923224646143,0.022942192057509525,0.006857724449360703
40.62,-0.06176938648219294,0.169524025646209,10.204687507923296,0.021257755419081426,0.023755074504305928,0.004481322729755459
40.63,0.28712376731565675,-0.3050597145057962,10.121742165412265,0.02748992277063726,0.0198456264360088,0.010019338804424424
40.64,0.13446767063877357,-0.11714701510164642,10.162630926136258,0.017145477671743112,-0.010909006645199688,0.020562855764464833
40.65,0.035028453141465486,-0.19096667715725296,9.626020306911869,-0.01893517939732384,-0.03388110964797098,0.009327616755522291
40.66,-0.023244920813378426,-0.12575245876953026,9.936060489849664,-0.010727861136742862,-0.022724882936239383,-0.008612358705081818
40.67,0.07288401548797684,0.04650645590351441,9.809816498231477,0.019393434451847408,0.019746746596372645,-0.02639880364385767
40.68,0.1736340730070083,0.26516801589125216,10.088936091416118,-0.003490129715253858,0.03430652647060945,0.013804056132493431
40.69,0.05487682449619052,0.08833259494794964,9.901812235675347,-0.020604053408428222,0.0006288352172731202,0.023676660081932713
40.7,-0.020380536976073282,0.11515306952362166,9.682120187934707,-0.006865548454201139,-0.01958059202353441,-0.006368675455766823
40.71,0.3095756611186282,0.22655510761341235,10.153030106319074,0.021540763048161122,-0.019698988612727675,-0.010417227775006716
40.72,-0.10530149372535634,0.12416929168019325,9.8665235076358,0.013771627831119673,0.032759055270466554,-0.020937104610518644
40.73,0.13587820125619043,-0.19603585236172405,9.48363375996346,0.006102467325340765,-0.01444869251188995,-0.0015206718876358064
40.74,-0.008075434524186575,-0.15592640373538535,9.905317273055402,0.009775777835592653,-0.0023454676257079294,-0.013779357709727316
40.75,-0.02470763858012918,-0.22068784157227922,10.17924671728061,0.019926141403748033,0.0018059445574174597,-0.007976177628866678
40.76,0.24879175242562995,-0.006266123525442861,10.167912670084986,-0.02644856820831643,-0.020482583360580408,-0.022164124824134608
40.77,-0.06743614989836963,0.061185245785601305,9.718584793367537,-0.003859162951978585,-0.014931207560730658,0.01736781375331003
40.78,0.20924730651609477,-0.28908024543211747,9.626594633389205,-0.03378896956206536,0.030180057191002453,0.00839678545436051
40.79,8.754498000414721e-05,-0.024690233224780034,9.798372668854622,0.003708010094104015,0.04008265349187788,0.018644190126334545
40.8,0.13231889745462916,-0.11768108858023352,9.761847646573623,0.017118822107406617,-0.0020913797799708275,0.013190103852928804
40.81,-0.17032148389076973,0.27495043556237875,9.550128001946113,-0.007537074756567866,0.043339959002111204,0.010431967073851524
40.82,-0.21744063097727398,0.2492256694402186,9.49594630261189,-0.009937195918520244,-0.01462125880465852,-0.0012375592472386257
40.83,-0.14128413451003494,0.2864528127199501,9.334907098936833,-0.013732870271394738,-0.0010646599530186286,0.026976059566827682
40.84,-0.16145811869363477,-0.03112813833288178,9.88717204903929,0.003131240198162168,0.033214168122988906,0.019969736661561713
40.85,-0.22082280369273072,-0.3155616697813829,9.919141606662798,0.013189727528056059,0.017325873269484912,0.0003744788886263711
40.86,-0.0361059281955406,0.045735804819230445,10.348923879683255,0.013943538912666097,-0.00937627911472603,-0.0070904274547764585
40.87,-0.4090088530713094,0.22628448817554223,9.625804075172336,0.009624493151704536,-0.035767495289620935,0.029765029534216867
40.88,-0.10397775801338077,-0.0041710593354212806,10.114910935191883,-0.01530714855097994,-0.011098507882276386,-0.017990828046705834
40.89,0.2425025045073778,-0.12564012061674315,10.030599925788158,0.005116544457567751,-0.03360749760542077,-0.031185034248497095
40.9,0.19689241104704377,-0.05015407398098508,9.869737118805498,-0.011677894368228994,0.03918808246362353,0.006747179115105413
40.91,0.06072462048616766,-0.05552745579942452,9.798845301807422,0.011018571282948614,-0.0087332169081115,0.014247795260613061
40.92,-0.16814429331663286,-0.17362223747927305,9.893148697608032,0.01564088239774755,-0.03496001279589218,-0.06050909937062862
40.93,-0.04326666612709701,-0.004073027652277094,10.032077499639028,0.026130789386327898,-0.01054361885329566,0.01020023021220693
40.94,-0.26467429235824524,0.14906100847236084,10.009607581683701,0.005848880440588448,-0.019799648453602926,-0.00519593208744211
40.95,-0.21909684509050206,0.21432247568424875,10.22089853886936,-0.013806720737111634,-0.0009961051615714825,0.030721141253224126
40.96,-0.00272193848326513,-0.13955820346560446,10.140439609057047,0.012586191173506716,0.025036597920201308,-0.02365488178733904
40.97,0.11424798121949756,-0.08571747826247833,9.734690585951263,0.016652288730490704,-0.013152494571447654,-0.00018803998673687326
40.98,-0.05749253822402463,0.029777302157874552,9.592879257555992,0.026233390846626594,-0.022471306368113512,0.013212164427687417
40.99,-0.10059915153940097,-0.23809607802185057,9.838794485088254,-0.019640396513438386,-0.007021584833894281,-0.020019166509445484
41.0,0.0569717440647943,0.26275299758511683,10.156608071378175,-0.0017843817963928055,0.012518523408461433,0.0009536723023909181
41.01,0.05939804808017277,0.13616777800805488,9.907258175326843,-0.046446429716845775,-0.04085990636796208,0.0032025546425020353
41.02,0.17885970723409125,-0.03636955452044333,10.170687100954217,0.0013460714088973774,-0.0052264902889877065,0.005043085204252484
41.03,0.40801974451996714,-0.012660530528487389,9.44794794067879,-0.007739337753979077,0.011765770684310835,-0.022670133754373885
41.04,0.16368144745534055,-0.007342080486075374,9.802826878531619,0.03647024420666053,-0.0375039086868715,-0.01000563093974276
41.05,-0.09906932165765454,0.19303927919126662,9.87793454689126,-0.026460173640143532,0.0132654950292132,-0.0024348120424764735
41.06,-0.15580053249400413,-0.17938423804716994,10.264285259344405,0.010127221715586289,0.009805644602670876,-0.031057982125795615
41.07,0.08962793745394268,0.07903457505959338,10.097323413097202,-0.01952633766847154,0.009287061646245463,0.017780720874820882
41.08,0.058918905638589945,0.2637083266789191,9.510333965900793,0.01117993359659166,-0.014139863544153908,0.001248384832784506
41.09,0.079983350473823,-0.16469234611791944,9.815212716350246,-0.015890238946086044,-0.0012681901699350755,0.009757531696722804
41.1,-0.01005488563029981,0.2890639906168305,10.141247251181092,0.014704809519743914,-0.016965747527005096,0.007614319535376401
41.11,0.08707163755960606,0.07603663400067386,10.0657471230027,-0.009712090908947936,-0.018548000064999536,0.02030946612995438
41.12,0.5167973771595703,-0.14750786396714072,9.70083229547705,0.01691695686992881,0.004927259168163873,0.00010240217509822106
41.13,0.17573701190111998,0.2128128500575404,9.871719525175639,-0.032707817640371006,-0.005377128520876352,0.025068873011661556
41.14,-0.42915175791259424,0.0790298701372748,9.648352325608668,-0.004589151527863848,-0.005544103484137373,0.006273727105860484
41.15,-0.06270103398627466,-0.05883495360329505,9.726771217968942,0.026815340361278608,-0.02539251606575293,-0.0068176926262720865
41.16,-0.19875357073032462,0.09778251093604681,9.553116296821297,0.015489228782465158,0.037503367360888294,0.00849687537535096
41.17,-0.02067779171490768,0.03557742997694657,9.916983846051755,0.036545058248818194,0.010789203230300567,-0.004349641676548664
41.18,-0.11365659380989693,0.31528184851789526,9.80295149567783,0.000670302193383878,0.007308497849848873,-0.02201077517516719
41.19,0.19819164270108797,0.010090827772506706,9.760725983163917,-0.039790709332257576,0.015521709390313798,0.021425880669024976
41.2,0.041098214537956576,-0.10485094323009082,9.75754690919322,0.036041051589248245,0.02172726787140334,0.034932732733659766
41.21,-0.24771174568146054,-0.028756278718687172,9.85680505044841,0.014791847065921678,0.03437654191800315,-0.013323698368385166
41.22,-0.0571264947422546,-0.1029926550494673,10.051787044204202,0.006271624576568633,-0.004265123499377453,-0.019616619296913666
41.23,-0.06605848894680318,-0.08818746110852722,9.642173484453668,0.0044146447405148176,0.006269295894836158,0.03472734221061663
41.24,0.25464335378651826,0.09032194213351778,10.103161871727208,-0.03641066052725499,-0.015296304796117583,0.014519123837582137
41.25,0.1613641877016027,0.040787142179389745,10.018900965332953,0.0021717521402046533,-0.020784247834962175,0.027641520363343507
41.26,0.007752794052341566,-0.0074088449726013045,9.729158967545686,-0.016896506493256674,0.0033489240828464568,-0.007615044972570642
41.27,0.028807370438686416,-0.14822545206591972,9.74506393094224,-0.01673742563697505,-0.026226859234502704,-0.0053930766245219655
41.28,0.19490537355002266,0.05472856187895783,9.843686412675861,0.0139583518328128,-0.0003829182727512997,-0.0790045835345633
41.29,0.23936601632398458,-0.18529559195098233,10.242039916633969,-0.011975701731375438,0.018425182477087458,-0.0143808106679053
41.3,0.0255545293038586,-0.15580938432263808,9.908618984973604,0.01918250384414025,-0.008299360107296852,0.01839810897542062
41.31,-0.02893534530947478,0.016060661444791503,9.691736433587767,-0.02992652584551047,-0.004334322861951203,0.013719222568153007
41.32,-0.08756649062714443,-0.25983022225890207,9.995026253826271,-0.005204439027125514,-0.012668641399893368,0.004317484203648629
41.33,-0.13267180738660977,-0.1988694423976314,9.840667879132898,-0.0057305118273444445,0.020071887025800976,0.006028925910484251
41.34,-0.09976412884327045,0.1811383975091081,9.714982706509614,-0.005231973107920117,0.0006918520855785891,0.03280272095189871
41.35,-0.2899236110616017,-0.12523138685185056,9.828242104420086,0.0022126859986600408,-0.02018491277852598,-0.02127472498836297
41.36,-0.25651608868325504,-0.03859278735996199,9.681422599097269,0.0036663109032925383,-0.01626735857753269,-0.029795420504645148
41.37,-0.0660567785187859,-0.05702191994873907,9.499285955774026,0.00857018546156396,-0.004306513775701726,-0.008337325960955365
41.38,0.4088480992092953,0.10177783253654786,9.97369686071479,-0.010219375058749026,-0.014431735654876453,0.01092004703020493
41.39,-0.22290130698547025,-0.20566685350234862,9.57590198260943,-0.00927906354642504,0.0035448618515426166,0.020091835432270413
41.4,-0.11150610695935251,0.15548790899260137,9.930991803162835,0.008886239142361392,0.02547896763662387,0.02229589588365167
41.41,-0.13255042527440483,0.12990711222630444,9.311232692555905,0.019462949457060178,0.012501646271848256,-0.082613329627916
41.42,-0.05918694442990926,-0.07452135900864622,9.482288234414677,0.005556068446356302,0.011071934899894822,0.0001651692246479239
41.43,0.00030300711303221444,-0.03819361548186843,9.643526124672297,0.01942831933709793,0.04360096310969586,0.009792006043679167
41.44,0.05332772939658248,-0.20961364742339045,9.897791132534195,0.03016447079925226,0.004166042518178907,0.0038769762238244428
41.45,-0.11017015742242606,-0.04822000371635271,9.71132877788214,-0.013500845464063275,0.027841627445828375,0.009303014348295325
41.46,0.2720998109336284,0.2844423858291024,9.816190527940986,0.020181459631150624,0.028733099466413923,-0.010080581115326793
41.47,0.2973417496852046,0.2938940124767681,9.816699902183172,0.031167992676273577,-0.01410582673086987,-0.013759924428916229
41.48,0.08607638155833797,0.21738620348274595,9.909938397899296,-0.00996387003259824,-0.008481102060963256,-0.02349577169435672
41.49,-0.048951555956191946,-0.013444794244585376,9.872917954194367,0.022169176130095388,-0.03662344943898238,0.022437296516775892
41.5,-0.3965060786231985,0.14683450709202378,9.576800141754804,-0.0012956091115573242,-0.0005657568297043675,0.023568723434748983
41.51,0.12986869822866068,-0.1606460070798059,10.301666074377785,-0.03324049848250054,-0.021172285543465525,-0.01172994970796149
41.52,0.06552708845403805,-0.07848779489046963,10.025108682419502,0.01752204294497686,0.023151295706746965,-0.03292965062249399
41.53,0.06554211630589439,-0.09539101968859523,9.85909532817154,0.0035730536778647223,-0.014460247802648023,-0.0031090059920317234
41.54,-0.07874193619412563,-0.13263610342804674,9.761911981540303,-0.00625421622686528,0.015241762367995492,-0.003624384735419274
41.55,0.22161507199092392,-0.09616470419144668,10.109042186895302,0.03663828145979752,-0.025591167115870284,0.0022677301542241724
41.56,-0.033841596311096005,0.06395341967108796,9.964831982291896,0.02713264411602167,0.019323376608236974,-0.00806651887501263
41.57,0.03636008144984177,0.041147361784556,9.923924514896738,-0.018659668730523507,-0.004626829951533486,-0.002519385756924013
41.58,-0.13588238201040767,0.06148340192741388,10.072413987691261,-0.008490908200953344,0.003979165741049011,0.0005735838851189644
41.59,0.0009004082680291597,-0.3506226089635781,9.981687028941234,0.00023743212281151832,0.000547343408221516,0.014435412903358025
41.6,0.08663104099916438,0.15160435693439267,10.019436860041205,-0.021620044095966316,-0.03295443157569593,-0.006245830924212189
41.61,0.053282112817318816,0.6479981703250086,9.949938553531416,-0.0023191886678011007,0.011383690003515648,-0.018788910108954462
41.62,-0.33995632658168995,-0.24331591084685797,9.816526050351642,-0.006209577345747331,-0.029218955114360155,-0.02252254244933793
41.63,0.11530424473935556,0.17497970662137483,9.652723609487653,0.022173068860388896,-0.019650673479208312,0.028659145214175546
41.64,-0.2920951586254464,0.1449095272245048,9.555467196274646,0.04838070706140013,-0.006814447539203836,0.014930546075030545
41.65,-0.1835594775682634,0.2774331979119525,9.895867017415616,-0.040926937235219826,-0.0024128066299848754,-0.006201429139493981
41.66,-0.1083673754352586,0.20545370396375967,9.983572807341611,0.013744403831073565,0.004948929722046936,0.01048763075507894
41.67,-0.1621865677151968,-0.2342015598015171,9.702616058458789,0.014885761227238387,0.025128403151438855,0.01345934401417233
41.68,0.21496364211561397,-0.07818905329418835,9.794719362622265,0.012933459497489983,0.01165944489931228,0.019455046411417074
41.69,0.12626314502888525,0.377719170333063,9.879073638139992,-0.001441211918571009,-0.02600344841342843,-0.0035727549625463708
41.7,0.07840082388109777,-0.4294990043820142,9.547875627257106,-0.02341065277720378,0.014066136580014257,0.00036771840457720996
41.71,0.19439360380138745,0.12130985176529496,9.66244909028366,0.009173924531157264,0.029880221700492524,-0.012430499338617819
41.72,-0.10626605752142709,0.16961431163943563,9.669556922042561,0.02263203635125355,0.017504283162393473,0.0002679886738206355
41.73,0.1598516048588235,-0.023000317269506625,9.65897375757709,-7.821467688555586e-06,-0.0007952827258367308,0.012824956216899717
41.74,0.0025897586128662857,0.33709489748969684,9.525709075779439,-0.03868452247882071,-0.011615679823881555,-0.02120783312968781
41.75,-0.034533497696533175,-0.005557312727094859,10.011124718401389,0.002845717747537186,-0.03632379903161084,0.02332229371687297
41.76,-0.23550417078915398,0.022556976902464648,10.14570978083994,0.017571033528279784,-0.00791539130819764,0.0020020745691076702
41.77,0.09696289179941546,-0.03018801590132555,9.78520315925157,0.005255973670796729,0.013457368345103806,0.009125038525454559
41.78,-0.04550549273485047,-0.013525037357438846,9.803669835332578,-0.01924034327631001,0.011432584283848347,0.011170716985994197
41.79,-0.22821906827540028,-0.032439483898766705,9.729639170628161,0.0314281982187737,0.009527591151326899,0.0015197397517874049
41.8,0.05127409090525123,-0.07382511134534075,9.772156624652288,-0.007153649065662933,0.0028890336651558285,0.03616810805923856
41.81,-0.0680032964166476,-0.026999039217435204,9.9093965268684,0.01263899899019676,0.022391249638550343,-0.00983522819406831
41.82,0.19334629683443424,-0.2831582289276634,9.761479965765739,-8.936223021742679e-05,0.008606998817950136,0.010206833819655122
41.83,0.2004646414322614,-0.01619121055270807,9.666056498553546,-0.011367180382411851,-0.03353263930473233,-0.013429660219523002
41.84,0.030224848945634895,0.011306866675894107,9.67989372492771,0.02267885420118302,-0.005984635940624997,-0.022988087932849618
41.85,-0.1421780038901454,-0.04365511787668727,9.739048848806059,0.012010501227762404,-0.023722049741039187,0.03671451920361066
41.86,-0.28809419077431914,-0.14486766721537028,9.67116434607418,-0.030999794668670873,0.013163179513940878,0.026807708422291524
41.87,-0.24684698614400055,-0.14528146237023634,9.38634026513272,0.0031197277054114546,-0.017468406346203,0.022031734024075295
41.88,0.06603449104067124,-0.008087714130748828,9.332911602860463,0.004390142980557055,0.003681328981849301,0.03991234915796268
41.89,0.056753438511147884,-0.23998569197714317,9.867905366077323,-0.012648236632672259,-0.007370633377107757,0.013731989276717977
41.9,-0.008287637009547875,0.19555473602785536,9.512716879370583,-0.010910986107648285,-5.634098794986854e-05,0.006395298276665499
41.91,-0.19318546932365177,0.14063776349609639,10.086016095810665,-0.020390545396511407,0.004119574060774877,-0.012838956533852097
41.92,-0.010561611649294495,-0.005272088564904772,9.824296459617434,-0.026003738023646555,-0.016448014462407762,-0.005461835155557922
41.93,-0.09027952861679812,-0.11961249427235394,10.108044492886624,-0.0030350809928948886,0.008495209878022983,0.00871788210827635
41.94,0.2210492924195109,0.12187771111316759,9.772168690603225,0.018115700661191343,-0.04208462780080929,-0.027649515393108396
41.95,-0.019704459316426937,-0.04083639790376684,9.717143515552833,0.01991313542237659,0.017135954129162956,-0.001204485784637738
41.96,0.14409901224768512,0.06705963907433217,9.996479463699325,0.017270293983697314,-0.02624080297706947,0.010816724389324711
41.97,-0.10321137870988735,-0.0037520549276975497,9.551751311084239,0.021790261913513014,0.008156140390252534,-0.021978069621493714
41.98,-0.10530799445901139,-0.017058110622630084,9.350686201279064,-0.0076894172485424605,0.00984789560217113,-0.010904513785969933
41.99,-0.14804577374540862,-0.2936619194065963,9.986775003776419,-0.025522008565330708,-0.006597501170094148,-0.028748075498802813
42.0,-0.004245515937726942,-0.24776968013491982,9.864712848469674,0.018142383255256904,0.022395289649028313,0.003641733990965918
42.01,0.1267519114326026,0.14095543543254813,9.430316663066437,0.012738817865496426,-0.0022271838341833762,-0.005827639709797427
42.02,0.05575325512833589,0.20025115146750946,9.292201947531623,0.02286818539561721,-0.0032429327127612003,-0.029331217102821362
42.03,0.05700253034526837,0.022236139264909787,9.641779890395163,-0.01752223697979513,-0.005707922507616479,-0.02456586772528219
42.04,-0.022762508782485293,-0.03194782505547372,9.698179704904692,0.007456751567783358,0.01808525038143844,-0.01620202966577467
42.05,-0.10943350360487283,0.29099790915026563,9.715149987416112,-0.0016238265241051168,-0.011871920749788323,0.024894772110811272
42.06,-0.30030844886127356,-0.036530233121004875,9.644248691564679,0.01575335478449322,0.0028119425093039337,0.02854740513550829
42.07,0.033991739202057156,-0.159890823265697,9.855441432863907,0.039931312275709424,0.02320086448995684,0.009809939449499478
42.08,-0.10364825161816588,0.027450727192951923,9.63793727251378,0.03496518128690988,-0.020022568934163047,0.0009675719706480513
42.09,0.07617145655751795,-0.1135542011450525,9.83428463681153,-0.0006001809694265222,0.01571279157441016,-0.005077106454577654
42.1,0.08155711259560677,-0.07529254986899545,9.772735226158096,0.004111066545488334,0.02842305948254543,5.289496570604948e-05
42.11,0.18831464416080881,-0.20474930361676968,9.964268003820829,-0.015905346529618853,0.0020403208818459404,-0.011377664896788278
42.12,0.032303900360130804,0.1147391947259224,9.617289943640497,0.010489362920275105,0.019653080882961946,0.037816754426555535
42.13,0.49155802993368136,0.19183314634694992,9.614412625672449,0.012864166780665818,0.015770443332055677,-0.004694861082107003
42.14,-0.21560037935183607,0.17115188805224782,9.924782365568133,-0.012898469722463175,0.011461303486084994,-0.002401057547941762
42.15,-0.01786467427349696,-0.11053384893552036,9.556078113183744,0.013410923189420727,-0.026580020940552923,-0.0020883145632608264
42.16,-0.0463351627106915,0.07083917984849966,9.613509457304168,-0.013861307639868339,-0.03800596523560076,-0.0015958420035473025
42.17,0.1048029542399908,0.020140106353293757,9.794716017076265,-0.008853224185572325,0.003139384535108461,-0.005080737742658328
42.18,0.05909155124974113,-0.10052043545095202,9.663449593318242,0.022714499008886745,-0.007833939547188154,-0.00570592065998122
42.19,0.05427017140136057,0.03100767632848365,9.925958786834412,-0.00277996637675304,0.023943860442095906,-0.029196372970903488
42.2,0.03263416618260181,0.15179444770803327,9.954187769181521,-0.037317645441173934,0.026698776848739253,0.0011873623315443096
42.21,0.07478172331382316,-0.06111994093236012,9.43888006008798,0.04432805973673422,-0.013299664150341695,-0.01340718313631473
42.22,-0.14762175401003638,-0.11450762545255525,9.402112169090199,-0.04984628418616099,0.0004650219913418444,0.04513295362183548
42.23,-0.05946503286092424,0.19849734890138102,9.81203446214162,0.012145870109020592,-0.02257572561483089,0.004205063478125345
42.24,-0.06456669111631261,0.15892116196648348,9.186059627523042,0.010292672875892285,0.02472223458315684,-0.008330943512109914
42.25,-0.1662672027293256,0.31012417068025255,9.698946854575992,-0.002646389068576851,0.03852361189650706,0.0007058189150298017
42.26,0.2615432372764081,-0.2262532155266716,9.768014682179519,-0.0030474006091451207,0.010023417404661892,-0.02522873793172172
42.27,-0.07208385278308176,0.1485327501128995,9.729444626487313,-0.01789030182824785,0.033706859677517784,0.0102103318319445
42.28,0.10818018855648617,0.10684038025646829,9.876193910645364,0.013849188546183404,-0.011978246537785954,0.02115795095739495
42.29,0.12761004026525594,0.0337505096611719,9.89240017369339,0.0024878277529360093,-0.016998190360430418,-0.02598677713530302
42.3,-0.07128415296803436,0.09224538489026385,10.154362031338064,-0.017441368634130257,0.004521262419510394,-0.01501129140907372
42.31,-0.1040868981676706,0.05027764952858238,9.812156437197972,-0.0014411962663713718,-0.004036586875887544,-0.0035393056397060724
42.32,-0.20935582946972722,0.15513356950003945,9.981271324157325,0.013341985073851401,-0.014714098401013254,-0.028939355462187216
42.33,0.0071895552890160995,-0.3546571140239797,9.843734830069424,-0.01594914814468018,0.0286176062357643,-0.0043334140823198565
42.34,0.4124830746307354,0.1886469253361928,10.015492400948773,-0.018195089077669882,-0.02377383143981598,0.004741180657198664
42.35,0.11418909811600238,-0.13130244463880344,10.076238793739556,0.025008492150597608,0.006751720950556951,0.01918337962420309
42.36,-0.09407410905014028,0.025307668647777795,9.967706209517994,-0.014148311208560395,-0.022089809282835854,-0.003009354880727506
42.37,0.018427331142403535,-0.06554252728703121,9.722679574031728,0.024414823531202123,0.0353680806502807,0.01598424558484266
42.38,-0.29534167988335513,0.28770285117657846,10.10105508145838,0.004390571450104427,0.0219901246397358,0.028825309637936353
42.39,0.25490156890966276,-0.16846873685176114,9.665791390368575,0.0029896444348993328,0.058939408302046636,0.03750354391186866
42.4,0.19810695133097056,0.011824540675022989,10.02376597746771,-0.015378196399078475,0.010925940000361813,-0.016598202694573513
42.41,-0.05070843168613128,0.17366779261461313,9.589489076930175,0.01920161452322799,-0.006300191336457771,0.006992474907585447
42.42,0.10207927503811179,0.19058610864068085,9.68852400458201,0.009545395828993709,0.010243563324652764,0.011076266787594857
42.43,0.03849497352786771,-0.22111024815213803,9.924199401185533,0.0005119566469945091,-0.0013454497293179392,-0.0012118074777795575
42.44,0.03822243879237985,0.06807610830467972,9.758786511773879,-0.013256013438908252,0.0075870141894490975,-0.01662757579372108
42.45,0.32775809112926113,0.13732012341617617,9.691950660554001,-0.022921686246562174,0.024373471134412694,0.03699223060001765
42.46,-0.07839506691414692,0.3016739578767572,10.020671512429626,0.008008789192994813,-0.022220483411984775,-0.012818491404511167
42.47,-0.10114352582877081,0.0025429837214095306,9.88719496733552,0.013374321997990253,0.016458614633858285,0.004684874293838497
42.48,-0.4319747866646743,-0.04369318872368286,9.790381754470623,-0.05055166215680377,-0.025101980112007254,-0.014752995249188647
42.49,-0.20889358374720438,0.13242374540815247,9.882631649968062,0.02227637224056707,0.01267746470657495,0.00039558165621586696
42.5,0.259933151269838,-0.0034690001652951173,10.012185266572994,0.006226249403331217,0.017153505268173472,0.007769963384040214
42.51,0.025758405469838496,-0.2050642905507482,9.52674982161064,-0.023417166472680127,-0.019130934663490428,0.015218687652087158
42.52,-0.09349314559740943,-0.32303790634948987,9.99510833484035,0.0082976200484577,-0.013316623829539473,-0.0060022350820328205
42.53,0.2103869085299842,-0.1638555655816434,9.519775487144534,-0.008212831558308103,0.0010272305093094191,0.0035650971570295904
42.54,0.08102959244632005,0.08675138715384283,9.773159860849095,0.015513045573311473,-0.008818537112824876,-0.01639646708323303
42.55,-0.28308169416186524,0.364049689536426,10.004972251851704,0.014838836207291413,-0.006241016021774418,-0.01646818805664309
42.56,0.10005819565925612,-0.05529573459093974,10.139473800642392,0.002262106661462433,0.010148533902312757,0.027904825818380535
42.57,0.1162907414974784,0.020748625176596865,9.842292438803334,0.0203452346701447,0.01564785667703512,-0.009291027072438921
42.58,-0.094767946246532,-0.14944461312459154,10.214672363594282,0.008986233116662372,-0.001083572308362222,-0.002718103555237438
42.59,-0.1692165997942242,0.23079234658683825,9.980018650997172,0.018307614404630766,0.015905599762873812,-0.012654222815749424
42.6,0.08654685839287986,0.11555265514281213,9.895072271298941,-0.016299877862187874,-0.01107958269850027,0.0073243737205433744
42.61,-0.027159852732450182,0.23175755148010105,9.795644037222866,-0.002416191738258637,-0.006298829024980635,-0.023986939799586902
42.62,0.07819719391504794,0.12303925947565128,9.47377614213376,0.030436743375835577,-0.01002052691601362,0.011740335130423553
42.63,-0.04692640174298088,0.020814003120374017,9.686568257824398,-0.0030807166406886266,-0.010676074523121129,-0.0003895673628874674
42.64,-0.11584414439947292,-0.04121622973891179,9.909511219547479,0.006589061689562248,0.020907665465373874,-0.010384809213612067
42.65,0.14146834650995657,-0.0633415805990492,9.54310804278268,-0.02243671465332314,-0.009398235025749886,0.03629425422573776
42.66,-0.09629342749061189,-0.007704078993962457,9.228030130716053,-0.005753228021126545,-0.01702502311726382,0.022277155436423154
42.67,-0.23759761119199618,-0.011759560401478516,9.613077686317833,-0.013174481290586402,0.020359854878719,-0.009842423454423732
42.68,-0.04021489990053115,0.08247034826852657,9.539215671144765,0.014235542374332558,0.002454356828519117,0.031083624495713745
42.69,-0.04974074337576905,-0.07786191132801323,9.830682203371136,0.012019529886838458,-0.022196887652444437,0.04503985388329753
42.7,-0.14880247300896182,0.14883285758766127,10.06527091234653,-0.00295542053879854,-0.004047748274747023,0.0335614045026165
42.71,-0.04685671063877325,0.09176102775140176,10.052208482974875,-0.00515154738929309,0.007787828319401898,0.023361338297887557
42.72,0.06661990993620036,-0.450691629153978,10.041751562780412,-0.0034498514984845907,-0.007269967914472233,0.016158805218639653
42.73,-0.09568582816057608,-0.042690708561999344,10.04171649466798,0.021148378525591226,-0.028318886694413205,0.014715973384238964
42.74,-0.1176490807893221,0.009031105040711038,10.057737126786082,-0.007443218953190024,-0.005705512038154135,-0.05428226532634086
42.75,0.3339348693255083,0.03287047278374474,10.130607166785202,-0.0122655808871074,-0.020585096435576492,-0.0068047388062826624
42.76,-0.013035029658411705,-0.10416744446538448,10.019617340884254,-0.007065923038924686,-0.016176920722238617,0.014876921974237341
42.77,-0.04887951056444861,-0.11782289023909494,10.056404395922424,0.003367072757093212,-0.024416264108257948,-0.020714013386316333
42.78,0.20328592184737382,-0.029502606435077895,9.932332160845748,0.004064778233410321,-0.023011495156205777,-0.02668238245881491
42.79,0.047240988475518074,0.11985923782350595,9.820781624516222,-0.028399586767453272,0.0009381807337150692,0.020612958934815555
42.8,0.1039318828957762,0.009646194074430252,9.602780612754064,0.023495496257888385,-0.0017884209522334154,0.0030232835565212443
42.81,0.09132111456997148,-0.2507081975904034,9.759400056527003,-0.020865130804443983,-0.03719336127059414,-0.03766173664523218
42.82,-0.4436038916231715,-0.20772504415014,9.541540832402967,-0.005899997283261522,0.011674049014607944,-0.008754568941534134
42.83,-0.004792489041337824,-0.015817771892366324,9.774072499895105,-0.0029713708716619775,0.03454576788599104,0.03324081153437608
42.84,-0.09766254221273032,-0.2977889879342504,9.900282014098172,-0.029957903814968073,-0.003862145526442756,-0.03257774537452564
42.85,0.09739508959288291,-0.1109424984008546,9.599975188033765,0.017777533918543198,0.019255021769546042,0.014604673058111577
42.86,0.07271181855081096,-0.09272365760060611,9.360442169167019,0.005576971792317419,-0.00571051896000836,0.015098755542426224
42.87,-0.12444283963334027,-0.02988667679443924,9.542757978088906,-0.041895802627955246,0.004353754416553198,-0.03781395071095839
42.88,0.10219307716418208,-0.04108419709789018,9.950943673780078,-0.0023119148290211083,0.009202554318113216,0.018502959005454064
42.89,0.13397838701533984,-0.2729083983818361,9.396807652268725,-0.009282390895440511,0.013666582821556122,0.029771004430555106
42.9,-0.16354794935393666,0.08591707714769828,9.484732448876748,0.019849542771313154,-0.009451398716321233,-0.022835729086010708
42.91,-0.01614705831855659,-0.022659185183167996,9.97246970055343,-0.003913174915089919,-0.0018999507683137907,-0.0003561884235504202
42.92,-0.017862031290878926,0.15577483627459923,9.909780814787617,-0.01493158594779142,0.0035240336039562906,-0.012074116264893789
42.93,0.14983013533826509,-0.03151609123145585,9.731843003179964,-0.019034718029670418,0.010382677727916416,0.024020890672618096
42.94,-0.30514941630035647,0.46479231041974534,9.851168747214347,0.017044411161843978,0.009810193339226943,-0.005675691544178896
42.95,-0.2631639512384276,-0.044835597639510255,10.000426037657004,0.01688521419791627,-0.04401914563787373,0.014946167832987516
42.96,-0.1793804981122782,-0.08190295447177323,10.26745665204277,0.022331041496150648,-0.01894116816082951,0.007516928742098078
42.97,-0.07244544389088128,-0.15018607650408955,9.860546864094072,-0.01577446376505321,0.015329260315898693,-0.019259291079372676
42.98,-0.13354919281138153,-0.10244045715509714,9.985361872157922,0.0401415189842512,-0.00729726074445809,-0.006036218108853782
42.99,0.336161507434829,0.021664273078651524,9.777702720349899,-0.008230470617790522,0.012340836872973432,-0.015971979026923964
43.0,0.03834612340281567,-0.04254740933296831,9.883227449658866,-0.0021330623422916774,-0.001004930687116762,-0.013940697592058628
43.01,0.21387044535304495,-0.14230944053951303,9.999990673481648,0.024129805202210048,0.005366887534924536,0.013647615323324078
43.02,0.17054039202576712,0.5640365788602411,9.579928003774535,-0.021140361003332334,-0.010468734591498283,-0.006221010421676687
43.03,0.17077029570703872,-0.3309340184588492,9.515431042365377,0.022062449012859295,-0.0011696659825086286,0.007841643812677672
43.04,0.008916406931407755,-0.07045966348337465,9.956051410352012,-0.020263155604790084,-0.02510272091577423,-0.008565481444710744
43.05,0.013932497571070018,-0.02261339133810119,9.717656746696923,0.015630390372253156,-0.03455762050551962,-0.0022393142952821746
43.06,-0.03001584529249229,0.06743229480016659,9.747925056172123,-0.01410544143837373,-0.010904607883407118,-0.016246774999946298
43.07,0.056848973948888624,-0.18821567171719666,7.764354713499544,-0.005289105691857079,-0.04181616232153833,0.2787084957502075
43.08,0.12718704382339674,0.029849541828916613,7.8246676913916975,-0.028650782883144252,-0.008077325941853498,0.3845335036596441
43.09,-0.0843702951761299,0.04450863414979777,7.787128177209772,-0.0044728190829579455,0.016177976673555083,0.2601738993858578
43.1,-0.16248618924590702,0.026748056737075324,7.197629915274258,0.03659430318763717,0.03722789121756151,0.3232290529485549
43.11,0.08192665150874781,0.11183784143400569,7.838016684921108,-0.008838598230584981,-0.021099565075302508,0.3616355726976972
43.12,0.1427646108036036,-0.07503365095204227,7.883222720574595,-0.01111705275060561,0.010147083688146636,0.3634762470302472
43.13,0.030360894668152068,0.020716701708813307,7.762801836834614,-0.0113490649223635,-0.019784995154955347,0.2602868149921359
43.14,-0.13939263014510148,0.09041485887119886,7.986317573206197,0.0033300244347168276,-0.03183558415168778,0.3486845890370073
43.15,0.030031925709978518,0.4485415754051706,8.534410601157765,-0.007833699194659422,0.01655448513612857,0.40070253806276995
43.16,0.09792065909854829,0.4315698275620454,8.511833157332715,-0.032468992068000455,0.06330127727424917,0.1897582073231576
43.17,-0.2178977398141832,0.20941581495214037,7.815786503862703,-0.000820645344846146,0.010418192078645952,0.31329768204836406
43.18,-0.2352808392927191,0.07050391468277675,8.653419318522687,0.02614657182949546,0.011904018774488968,0.35154732504380237
43.19,-0.033009083747792614,-0.145752112950507,8.367101743210071,-0.010160529627138738,-0.0007994197994896837,0.1586451504069032
43.2,-0.14315131722913566,0.019889604775497133,8.402576737003109,0.017089874881318527,0.00929318099075981,0.3016764380090628
43.21,-0.4309812728963055,-0.26324730991924095,8.25610966759912,0.0041033278272124,-0.008326743453555035,0.35049395579469156
43.22,-0.15366278790468924,0.003452134719990781,8.9406868194286,-0.01391636505496866,-0.04360792246411039,0.3545310876083219
43.23,0.0019480686604132018,0.032338226041342455,8.856416497823316,0.008208780317748611,0.02084967272211896,0.20156427859820347
43.24,0.0914852285231185,0.08975553607136726,8.660922529357219,-0.014495990458194385,-0.028403087068197788,0.283769024603464
43.25,0.33475954586611617,0.3070897897516976,8.739260090539167,-0.01499139605062894,-0.014322015800718834,0.3311951646014646
43.26,0.0028822364013320885,0.06597835177522929,8.984383811871579,-0.007492133252083527,-0.011153314006690075,0.3430602348703836
43.27,0.26527717930651673,-0.008755007869063398,9.074563458104162,0.04197283982088561,0.018223424009407612,0.3641446369722088
43.28,0.145762665124083,0.23269280843384593,8.963711092828808,-0.01591464923633592,0.02198798204737884,0.37105506527656656
43.29,0.09128425215779475,0.21633662173143578,9.308505051799823,0.014325573824634171,0.01313074151746185,0.2127745846648199
43.3,-0.08197331872677419,0.120905968981083,8.871989248366557,0.01204202320901602,0.005707689983071974,0.2276311198614413
43.31,-0.27298389992648686,-0.05635712668594074,9.12961365447998,-0.041198961334200895,-0.043943884283649065,0.3337076082276854
43.32,-0.035170262863842464,0.12756232606823192,9.152245015061636,0.025952216516528483,-0.010151723591867008,0.3320257087314208
43.33,-0.029656230770149287,-0.07539649744091843,9.00021583117787,-0.02930274971527382,-0.007326849612016242,0.31576059480407315
43.34,-0.04671701652596151,-0.06521354009738164,9.108925573786754,0.015810985073838532,0.0001564945479916589,0.36454913651258924
43.35,0.20005795806734916,0.23868206457303331,9.630199294951034,-0.028691287470307376,-0.01235327260100183,0.3558239464176681
43.36,0.0833689051432848,0.06741122535775604,9.65806059242678,-0.0018058534769260235,0.006639655966559138,0.11317380546971986
43.37,-0.1784537544235781,0.0037697128647925446,9.14210048892154,-0.037514514996141404,-0.0040241375453052,0.2582212322633406
43.38,-0.13494641075163513,-0.05783788012508749,8.986649057557921,-0.020445125422627938,0.005016532580888104,0.2964069177418166
43.39,0.136518219874112,-0.08192836792462749,9.61672378185556,0.009983080838786768,-0.008690773809686126,0.26754002251982717
43.4,-0.07398436878849975,0.24705764190230986,9.259565326993549,0.02523854537434405,-0.004781110705585456,0.27874351027538946
43.41,-0.1929856757744599,0.28422524899714247,9.305505213002029,0.003758895661420845,-0.0023791413927180395,0.3218753209600657
43.42,0.15620099204527765,0.19561958812089006,9.54611116822412,0.023924742738290237,0.014171550409697333,0.3413949801629368
43.43,-0.03842475968198683,-0.0009384214422009218,9.43276120979605,0.03804873371398445,-0.011906956786616745,0.33243357139523017
43.44,0.1123500342792524,0.08807857733407319,9.340110567848638,-0.004168551632487909,0.0211660041579835,0.3427392819383132
43.45,-0.18220440375410848,0.17901582382414347,9.323660152175242,-0.0007814888979019235,-0.004308032243464745,0.34743478108614545
43.46,-0.11045815361453323,0.3048528111189116,9.499940157540545,0.0031909481307999775,0.03517069616815259,0.210478363668093
43.47,-0.10892323929405243,-0.22775771824483065,9.836938844346257,0.002182529243240903,0.016490124826948564,0.27689581854558604
43.48,0.021785830481647155,-0.2082295761124678,9.16707637724359,0.03010822628031453,0.00019811545726797068,0.3095350478027835
43.49,0.19202241439933806,-0.30139226854241913,9.632410543886259,0.017545064423392518,0.012635563399140851,0.1883807484269792
43.5,-0.1930227903160079,0.0241971746772245,9.307876787036788,-0.027899695301584527,0.00013354227917724594,0.20590732311700058
43.51,-0.20353129625424887,0.09203299516242616,9.115213492522637,0.016776707458831464,0.03151041869848916,0.3024932790111641
43.52,-0.013971423388368497,0.14220191248953454,9.439865975064901,-0.03300080009475041,-0.015591607745906821,0.3235846885880245
43.53,0.20460049007082354,-0.05565940734624472,9.634367577827243,0.007707278390213472,0.026620803075533706,0.11826747752363582
43.54,-0.05215598602119589,0.3863766341630692,9.00284239862388,0.013984898476491783,0.02335991653333154,0.23673008964775585
43.55,-0.06124565686496914,0.2559208676522224,9.29044182771416,0.001959509439989618,0.020488243445021877,0.29345176822063873
43.56,0.005132833260084046,-7.235424709129898e-05,9.159919990668406,-0.003837687920576807,0.0033877960137027024,0.3293686535679685
43.57,0.05648325519403079,0.08930477635371895,9.428109857314448,-0.038544577418613724,-0.0027159797152371077,0.16358476541196965
43.58,0.15291662073490547,-0.1408041697795576,9.346511747570368,0.02544250493013557,0.0038419377478089997,0.16907595449058355
43.59,0.1749777954910106,-0.10219717415602257,9.36646061739796,0.006162023542539988,0.020591738361484428,0.26730608891712043
43.6,0.06738071209780988,-0.11590355732160716,9.215368455781752,-0.026322845945606937,-0.0008056708486572257,0.2769246330614636
43.61,0.051770608226008215,-0.09265703699486577,9.521098057584668,0.02910938511542353,0.01862557827668094,0.1349428119318775
43.62,0.06146205385296641,-0.036635240676316544,9.749662888834182,-0.005348638457267235,0.010881015096809225,0.2280606640060183
43.63,0.14475635260575279,-0.026526988934809585,9.267942551709718,-0.016425385630058787,0.026645491267356308,0.28114424167414076
43.64,0.0745245740995153,0.07406180431083517,8.885754775632794,-0.006905853474019651,-0.011613375885884684,0.29175930483682844
43.65,-0.029026767808014046,0.014945738408442455,9.885228176552419,-0.00667383079195858,0.036123740487282535,0.12919640335699703
43.66,-0.02062597408737971,-0.1384148244801047,9.15262130857867,0.020853362595466895,0.0203012508762436,0.180305498071596
43.67,0.04979137601873414,-0.07627454367367453,9.357205222971423,-0.005122912641916475,-0.011758331133839822,0.3073232031708658
43.68,-0.04969510025826904,-0.08603668839249351,9.590123094189124,-0.005173968196759277,-0.02026707064855405,0.324060884237121
43.69,-0.12818613459751788,-0.14047914015991958,10.058882650697013,0.006419692781889552,0.06553527482488586,0.14214740629278502
43.7,0.14696994894095639,0.26663237347717533,9.614808192705981,-0.01747600939651578,0.018132245215773755,0.20268865390654314
43.71,0.07020890002335288,-0.01576616886787662,9.297365167921722,-0.011772900817144008,-0.01242620946120624,0.295014966846146
43.72,-0.13591913260676605,-0.05400242599838836,9.229915689241128,-0.021957158140873907,0.002007679561568723,0.3063594632618305
43.73,0.10364847689934929,-0.1349982373125468,9.526440633762743,-0.012443429925871307,-0.03275278955883088,0.29956785602823666
43.74,-0.030817803460438623,-0.31685425919167715,9.603286533001238,-0.020477599375560276,-0.014253678634330198,0.3108771020161793
43.75,-0.08315217319525012,-0.0567857404348498,9.85848538933323,0.025534561836394194,-0.0001725355319462836,0.13088768728861525
43.76,0.0587767285980463,-0.10615818961084236,9.627951004240051,0.007395585413477108,-0.01566699585212164,0.1760235342746473
43.77,0.1629049097252387,-0.013732804092818351,9.325446645522787,-0.014035485201778367,-0.035900816800064336,0.24522252965985658
43.78,0.004018912258214925,0.08605916024398366,9.497823187893228,-0.031094648374477223,0.027507632916138294,0.3107226157279951
43.79,0.42665162168891224,-0.08028087174408256,9.943512301169438,0.02052433457614478,0.035320577188110894,0.1203218487571609
43.8,-0.20517582297320897,-0.1283608976024874,9.63383007566781,0.001043420781680956,0.011450995994572154,0.21860545647663174
43.81,-0.35010233118774536,0.08902774869063364,9.398730114546153,-0.0198788585646568,-0.0031236981161214907,0.27016099369282504
43.82,-0.1540714921111088,0.09382418989955237,9.550274470047583,-0.007164422435877537,0.010842770999890637,0.2775859262773066
43.83,-0.06943260603961364,0.02119270694436792,9.729640535217644,0.048750271183863485,0.008532994644952725,0.23134830486500887
43.84,-0.12378430810830954,0.1757307839858751,9.320519461349726,0.034269810478657965,-0.04366274529723215,0.2730973589801794
43.85,0.20731590112381193,-0.1040426969137519,9.475241011300023,-0.0038470352036567897,-0.012443883390950823,0.29951764248909446
43.86,0.11919229868800489,0.010442624103425538,9.776574458510142,-0.02218209370960107,-0.018390385610715668,0.22050710896800305
43.87,-0.5336203014466647,0.34773120158361803,9.545093147602818,-0.008461799228531911,-0.02759911642738596,0.288025013797726
43.88,-0.02319036994789585,0.3209815034723834,9.698033704316265,0.00900051633032606,-0.004460256617178575,0.2677992945749667
43.89,0.048651840410077,-0.07095176550775573,9.79150249547971,0.001204860002612746,-0.011458920167631254,0.32888429237045275
43.9,-0.5161005802819666,-0.1856547664916247,10.033376574952593,0.006135638310134644,0.03194512283882276,0.17958216158103701
43.91,-0.04999807626243552,-0.033359933479772716,9.48685918003463,-0.018226256579502255,-0.0035422005663050143,0.20873899633705673
43.92,0.025209035404450436,0.24249936476295095,9.504183029383006,0.0005340030697676087,0.006317823051190564,0.31298499579432104
43.93,0.02345826760188696,-0.14753245143275462,9.747275817343445,0.0077933896343833535,-0.007640969428079325,0.26043337607949124
43.94,0.12078814052943157,0.38066398091035686,9.873171613860833,0.01869251748320123,0.00979282804484758,0.3136578582494504
43.95,-0.2415223365374361,0.09756643392257836,9.438101613075803,0.008684700051853652,0.017239260648348746,0.34255707826208553
43.96,0.1841226613293522,0.019425911039644684,9.88578441082109,0.04991303060623016,0.02356258032918339,0.3334933789512612
43.97,0.08816453776624153,0.014744239371301773,9.89601203786243,0.0017674265368394291,0.0016444300708070257,0.34376844957450614
43.98,0.21720968811751662,-0.044663574239146075,9.940058444595895,-0.022080778713301868,0.03447148231121192,0.27845609812685157
43.99,-0.2025087932552906,-0.21607467252731405,9.987617739357,-0.023680940067564785,0.027473289119469602,0.3205611856650909
44.0,0.12458549771207396,0.0467347233379847,9.820821554438902,-0.008832369167535813,0.00024904744628849364,0.3472765714744612
44.01,-0.07631010689581655,0.26443867687783323,10.17657744992688,0.019914530582941035,-0.0203343825667518,0.14547512870781978
44.02,-0.02226586372479517,-0.03484799875934168,10.017372709941498,0.035804511358368096,0.05734863700902537,0.15374621208504927
44.03,-0.2833912659915673,0.09755151192671958,9.23072032607583,0.0007368182233964643,0.017347892306111785,0.20725481160964987
44.04,-0.0257939917631727,0.13309452489056514,9.910387886081649,-0.0013863406290219073,0.033436824446840804,0.13093599573612352
44.05,-0.10731652720545945,0.3440160222249137,9.5711252151251,0.0020276886603032445,0.025074761289113626,0.24549892274332627
44.06,0.03405599113596004,-0.07822099083376943,9.741869419422843,0.013475433930755492,-0.025393016433932644,0.27990465242157253
44.07,0.18643161185858054,0.2596673579308957,9.642601003472828,-0.019472957463955748,-0.030683674388876696,0.3037843286755899
44.08,0.09188054808513026,0.05114921080163776,9.827674685735202,0.008895656819003391,0.028210266993129826,0.12559605988314124
44.09,-0.03333838285023482,-0.09430177723033085,9.607486271118518,0.011681040817480327,-0.005664043586901865,0.23294362340075528
44.1,0.04513476399692064,-0.08274115668707653,9.30860086353045,-0.019700019666980696,0.019494180060945554,0.2609295117695819
44.11,-0.3271863428113404,0.04705492833193807,9.708290041637829,0.011702880376778154,-0.026753301562542006,0.1889823031513523
44.12,0.22389814088456308,0.14739879515149046,9.610909610246809,-0.020201266717999107,0.030920942045886114,0.2388953197019342
44.13,-0.43987461262782107,0.11345819714080009,9.32862446445695,0.02770696755322376,-0.014194852458838215,0.2882785605330332
44.14,-0.1726187973597882,0.023019565513755114,9.783648566679359,-0.004093063641861878,0.013690534584114128,0.21752299459010838
44.15,-0.12367903936097978,-0.020120729873187318,9.73679182138208,-0.016157211918742264,0.012222334746242215,0.2577865925980783
44.16,0.05792040589882365,0.11825932838257636,9.742106609575067,-0.02688118191043822,0.012440465722316985,0.2556051867138404
44.17,-0.02897402211258643,0.2903631617271167,9.603200539247213,-0.011291394624860639,-0.011689547951119407,0.2853800988708091
44.18,-0.0682453345986946,0.06391033399245538,9.80122826805678,-0.003532582288527216,-0.005958595652537793,0.33061498908032744
44.19,0.2398783279705769,-0.15506651916305472,9.914239368247665,-0.029595360270543904,-0.00040331097719382004,0.30786665029662297
44.2,0.04399294822065612,0.4330575590045807,9.803209207524404,-0.01748223307264988,-0.023739879572339483,0.2930540132574382
44.21,0.11663686538853038,-0.20898003681186386,9.73906728139741,0.006145454509073035,0.019727559155217143,0.30960931825695204
44.22,0.12658532628514182,0.011504162417131585,10.049228880957292,0.023024433550000032,0.004684183292934453,0.2704429476262385
44.23,-0.12796566408548768,0.14047592594562588,9.80854836615272,0.0027223640745812545,0.02100332504415886,0.2806796107316942
44.24,0.0524169491910896,-0.031358076405454044,9.93397920772846,-0.026035046177647823,-0.00196944297844018,0.3234586265927635
44.25,-0.024801608935120616,-0.031588016517993076,10.042498204784213,0.020116355469210798,-0.005910414035178788,0.2124534488309871
44.26,0.1601633837082721,0.20673245305427354,10.332796960300353,-0.007602294128602184,0.023747971260892932,0.2159846679144325
44.27,-0.10638770867564232,-0.048329885115663496,9.396022826539076,-0.02714027484921204,-0.018654154007293464,0.2171036565200185
44.28,0.2936497094610737,-0.028053394994482696,9.651642419923034,0.024246242220728253,-0.020637083983293298,0.2923766233429005
44.29,0.010298225000359746,0.20091636497803664,9.81764878351068,0.04204116082508037,-0.04005799550145458,0.2913575540604764
44.3,-0.14731001788858053,-0.11971852116613213,9.88039424447186,-0.005280710793506716,-0.01882285308093013,0.24869890595690466
44.31,-0.007239444158503654,0.026190803535515048,9.799676592378075,0.007451618683597243,0.010858868090897918,0.2725448163390719
44.32,-0.021412172026235392,0.013855411219352232,10.012678980426472,-0.005144485760523392,-0.0036328615095031717,0.30948315347736716
44.33,-0.04226322081804154,0.10340476344958419,10.130237609670901,0.0007982969626482549,0.01226246445846784,0.10703815445487418
44.34,0.23466167521638512,-0.08503688090152131,10.126425162178778,0.007481945150745102,-0.006657815750990221,0.17183337985629046
44.35,-0.20224135627366155,0.46137458577679713,9.54854846116488,-0.035469521944308316,-0.02775418293578155,0.23523198991308034
44.36,-0.42106273456023025,0.031549325658947656,9.66010481251779,0.009775304047789863,-0.028234327495331033,0.2746823010824555
44.37,-0.11484952473616601,0.05995228417220137,9.972954896626053,0.03339705829492645,0.021026108291660642,0.08182875428162328
44.38,0.22690991514340045,0.07690819117179906,9.868172536128395,0.0667962087189847,-0.006726730176055403,0.2298048443310787
44.39,-0.004570506893033088,0.013686412457115799,9.703655480007047,-0.0060333483763132965,0.01983825387906698,0.2758739575687873
44.4,0.2536015979286617,0.10087083929025197,9.926161756500578,0.013872655995362094,-0.020925121312632525,0.3084618050338139
44.41,0.07719230000874759,0.2018881997798509,10.038410694189622,-0.02268602379037303,-0.014109829278112565,0.08411718470451743
44.42,-0.05181884597625699,0.14939838749806897,9.614411710393854,0.0016635085185982394,-0.013917784760687304,0.22498903198175196
44.43,-0.02120468197680475,-0.06351850906886101,9.711271248427709,-0.006574741783719586,-0.018946633171028193,0.27728259335912914
44.44,-0.12728681515279522,-0.16003431465223897,9.689370298597016,-0.002988825364924045,0.018459083360311015,0.23179742852666668
44.45,0.063102770536443,-0.035698869643127455,9.45312752365243,-0.020667652175253494,0.003624256846397135,0.322697998481936
44.46,0.03422637148991716,0.1437778948529167,9.626034382992923,0.001525411010529856,0.0070852574054569625,0.25018899143432843
44.47,0.06724192204931514,0.060682313041514696,9.463565062674867,-0.004524288643020861,0.023949791850114678,0.2991193178442675
44.48,0.2359154709576636,0.43028846334322235,9.964058746383667,0.008970127020213303,-0.009758483400459969,0.24502469723338144
44.49,-0.048811237155928826,0.17345517862907364,9.663598760266222,-0.03425716959490561,0.012553595058939465,0.29330493926485557
44.5,0.03432686380963203,0.03232047534736946,9.811507725912355,-0.020121902984806775,-0.0281803831084961,0.33007305217284133
44.51,0.061369246386987986,-0.02394493111439199,9.767889028562339,0.0065229721424609425,0.001074576743407309,0.3079435805681988
44.52,-0.01427306555352003,-0.15061910462575162,10.122963698396232,-0.03372366574409733,0.05236484579101317,0.19405462162057616
44.53,0.086580152780708,-0.045284598498800725,9.940662019301097,0.009302800868860237,0.022144132239425292,0.2547767832016689
44.54,-0.15189275975860492,0.031680349008508996,9.710465045538148,-0.006291986053605866,-0.004255077937453711,0.2891678644058504
44.55,-0.14335970510790194,0.19952714609913996,10.040064101859661,0.0294172964469534,0.012142866076458318,0.12048120742028336
44.56,-0.2712845090150679,-0.051329486608296074,10.006291908741705,-0.04485720085160302,0.024246102582651155,0.17375742599573768
44.57,-0.06523355787437475,0.1825184406360923,9.53606895036294,-0.033389076876640326,-0.01298527537372298,0.28470319389000265
44.58,-0.2697150693266524,0.20309774935182692,9.593112379718708,-0.01972137264922376,-0.01565768885425505,0.2667228337108483
44.59,0.2038816803174776,0.04960282206743942,10.192056612629179,-0.00149613280786051,-0.017037101695197336,0.15829261035610753
44.6,-0.09173195413909105,-0.06794681712501094,9.794571052676506,-0.04285788110741341,0.03174366574998744,0.1432420422147967
44.61,0.09340504757753036,-0.012905982584546297,9.824566436262424,-0.016945830836946882,-0.016059785261178093,0.2611728392694598
44.62,-0.15686358425323627,0.2892465518502527,9.486722956224076,-0.006472727582739167,0.0010151265285679913,0.28032382897958863
44.63,-0.4401922550400076,-0.06431501666591607,10.168311195765655,0.003413504853365352,-0.009970753830184378,0.15987794610442807
44.64,-0.3219781046870907,0.2776081822225312,9.976334018840634,-0.04099372483911071,0.004571352235630176,0.1929042050339106
44.65,0.36313283574264427,0.3313367146177765,9.715198950372946,0.0023245963246590552,-0.0009380976254403407,0.24254977262334565
44.66,0.043961017915303637,-0.053502085066910954,9.573363304317633,0.037409877289239515,0.013799836857322096,0.2830725227016238
44.67,0.09549886787893483,-0.13235944401955133,9.745270858182687,-0.0014767811415075985,0.007875960676371856,0.3174104269816661
44.68,0.14858843659378357,0.05043359970141033,9.88567883695803,0.022325725520322696,-0.0510809824993422,0.29270226335529337
44.69,0.14797868810126993,-0.10607216847214325,9.895436655242502,0.01956626633678672,0.02025064455543152,0.27946796425937925
44.7,0.222718496731419,-0.04793704807586254,9.967182243068068,0.0014671692810221443,0.016691760698994564,0.28997542782045216
44.71,-0.14163239635889777,0.11649117470758961,10.309928892347958,0.011068400143584017,-0.003064678054414293,0.3118499252280716
44.72,-0.0843048239858882,0.11173306003233642,9.953595177757153,0.012234398432358996,-0.016182683501115326,0.30915648092345754
44.73,0.18654524898186478,-0.07012217228987319,9.979242813495828,0.01052866331824574,0.01929939105435862,0.31252377962236777
44.74,-0.2166385312613144,0.26747891722687894,9.965335084409379,-0.014810576205201535,-0.01920675878841757,0.32807405810816537
44.75,-0.09221553489871902,0.14337857072895244,9.98127510248581,-0.005732148135183125,0.01793609510965344,0.31054819963054203
44.76,0.01786836136203645,0.2578689506576544,9.885545415941237,-0.014416212084239415,-0.003977710338078035,0.2600990703186961
44.77,-0.13780205953148641,0.2693414715605391,10.07177412875289,-0.018265963567397746,0.020408640465989582,0.13953612382597852
44.78,-0.16741617436590633,-0.014462467116568834,10.013197311112059,0.019672591794322195,0.003475515942523241,0.22046120124198704
44.79,-0.02964268819640131,0.256805342616616,9.584196339379409,-0.01780902956569847,-0.00207372675949858,0.27274881688572317
44.8,0.09779516124399722,-0.012758284833542636,9.645412435317567,-0.007497229634495216,-0.024288641171453067,0.2974370979778848
44.81,0.3098775487632057,-0.04285518065344529,10.17747119708365,0.05243922844447168,-0.002227168608309236,0.1230381640636604
