t,ax,ay,az,wx,wy,wz
22.86,-0.871166913224597,1.4037864593488452,13.687394365172736,-0.25609654176860325,-1.768472937561826,-0.6862529950075474
22.87,2.369780659446057,-0.1758982530521803,11.480117373553579,0.8138416555628908,1.869845515238435,0.4646374609119612
22.88,-1.6082482672249088,-0.19962609957709693,7.974856956857936,0.7819119607222829,-0.20117198195839547,0.05734163341550031
22.89,0.2165398213711486,0.5367393305342786,5.471919291903639,0.9678254159368296,0.01868597639553362,0.25090921706001523
22.9,2.6415422874584173,-0.04037735036807718,11.737044370098657,-0.27353081185859396,-2.2713828087426164,0.507258600669739
22.91,-0.6361737903755413,1.2456123491595352,12.276598987298653,-0.4577625778836919,1.1846209623860164,-0.3011054827805684
22.92,2.7978987021683275,-0.6284458868509984,10.222410340245652,-0.3740979051683104,0.28791620655230316,0.49556696702991954
22.93,-0.5607340242293182,-1.610879731001785,10.505228599989206,-0.4757808773497594,-0.6775069778899181,0.24496281412258739
22.94,-0.11122281833918682,-1.6247177561437534,12.555610167950213,0.5352964369825908,0.6952562629074474,0.18089122711191635
22.95,-0.11939244971769755,-1.2181572463087935,11.146984241198547,0.30516046822270876,1.3158639006728239,0.3592234395291533
22.96,-1.6977185235408823,-0.43631981830795336,6.567927232074535,-0.5273554781688257,-0.9127974382908137,-0.6512561176976274
22.97,-4.1386452842841015,0.607254228379186,13.288208983854604,1.3843616846105111,-0.21910257701619967,-0.5666616748208922
22.98,-2.0291796625863983,0.48783807598359813,13.125207261301128,-0.6034645180640573,-0.795771151873046,-0.8726661197303732
22.99,1.413364407535233,-0.3323485831118791,11.18534642437425,0.08962458780862687,0.15246925777949827,0.8544840585158737
23.0,1.2273804813268536,0.8303427531791188,11.060446370557491,-0.15838083678260945,0.7759003992581436,1.166692001263134
23.01,-3.0580286296014343,-5.713437089198717,13.256154776703768,-0.5294870217609157,-0.03100977231914916,0.6806321360808677
23.02,1.1680634959038412,-4.933044122731348,13.512810332620077,-2.010447235732259,-0.1150087283193537,0.4457587928609078
23.03,-2.617167335020521,-1.8358507311454098,9.981717165131125,-1.6461562362659259,-2.926135951909143,0.9043016579647157
23.04,-0.018654256942193036,0.3105774795797556,16.414579174974257,0.8447515501549818,0.1951708601861214,-0.7348344761702778
23.05,2.388807392727305,1.1966911445647406,12.0430904517889,0.014167267824787154,-0.8599628441703894,1.1705029263774234
23.06,2.1807116545576197,3.128798782709258,9.400340681327343,0.22063603610003646,0.6954627608878894,-0.7544571892874636
23.07,-0.5979329919663766,-1.9668417738757864,8.495749535684382,1.2458284703794102,-2.575334896619432,1.796453943277766
23.08,-4.007046482170609,1.8351457840640633,12.921383765485604,1.2763649512275457,0.8663018779103546,0.4708919974984536
23.09,3.498985489796934,-0.6831126614467219,8.91965033509965,0.029507423267590066,1.0294303377015503,-1.2178014876510206
23.1,4.339744149431593,4.351948026042315,8.529083509090716,0.21714497634428281,-1.572457657106811,-1.4540703964767536
23.11,-3.2041976450729974,1.5275297532580243,10.375315880270474,0.618688590942835,-1.9660327584755035,0.5735531141803529
23.12,1.3832675991164238,-0.41895520620112314,10.441097448353455,-0.8322904542473513,0.2891569181477362,0.9162138711712694
23.13,0.051298494415042716,-2.0773003982852676,9.195399539360428,0.10791370867130974,-0.15309167146000502,2.0398855622072904
23.14,1.3241238317637125,-4.1395301314022435,10.143175672918973,-1.64607002818824,0.01352241599950586,-1.4366596280304422
23.15,-0.2322357117911705,-1.9353183409685104,8.76307027180286,0.3068835345215208,-0.5145489343035934,-0.7340046921284995
23.16,0.007010329019166983,-1.1469286677373887,11.56779537941026,1.7159636869220658,0.7849846316693468,0.08287743641786001
23.17,-4.403798342192455,0.18155466340576,11.208373733492017,1.1105795680111032,1.8818189308883335,1.6362157281491077
23.18,-2.5440963171532895,3.089073149554293,9.93966157729663,-0.0667294189636716,1.3185424835225745,1.0939925634283385
23.19,0.12019023596172637,2.1837099997636327,12.139859664015063,0.35940720424946637,-0.8396605908016034,-0.6377565969484271
23.2,-2.8797625321444147,3.354972443530915,6.536758110605363,0.28553063120694055,-1.259970494104281,-1.789920521425212
23.21,-5.111085445606404,-1.3645709273658122,13.127624725722725,1.0197398320948137,0.6699634213771946,-1.9630612124209537
23.22,-3.393177015228338,1.7397441398091928,12.873297137046642,-0.9080990018256944,-0.4704545900350054,0.8487491238191269
23.23,-0.9398385758717819,1.3024313923701922,8.815970547044849,0.919976930541736,0.9179908166005558,0.86161813085491
23.24,-1.5909980230856384,7.050360466769667,9.587791276734752,-0.2243651231594975,-0.6978938038029017,0.765170161601717
23.25,0.5512125741029308,-2.5087239527516423,11.991055508828387,0.46257694560161994,-0.43961666385196246,0.9263017526968435
23.26,-0.5761526618987639,-2.8171216854359105,11.492061473891106,0.5180852829864889,-1.282770904199196,0.23014558511174749
23.27,0.9664955312669923,1.6320750120297745,6.476045495474619,0.7317161275520322,-0.18774862404188294,-1.4555735228058024
23.28,0.9961223201205693,-3.3297740917419225,7.837138419835859,-1.3611671398506084,0.774354321746268,0.9471599638842546
23.29,-0.7969274686564891,-1.7463529197742682,8.940673106699082,1.408311535482077,-0.10284797038949996,1.3014408541753275
23.3,-3.05598077009931,4.62471432504504,11.089603522624678,1.3833695583986871,0.467063652783294,1.1423299149993977
23.31,-0.6822902752655919,-2.099077060815443,9.398604215436176,0.20068194952353352,0.6073753517356997,0.018836268547403147
23.32,-0.12061240966262494,0.6811475957016314,9.820729387315277,1.3994752367851861,-1.4142866834112504,-0.6076758064340005
23.33,3.1304483176805697,-2.409323335004056,14.400653437831767,-1.246793386321272,0.09792842161153624,-1.3690366311185023
23.34,-1.0093276118207504,-0.6051673281407614,10.890482129202798,1.8758599856030687,-1.621230564654752,-0.6973710814995635
23.35,-4.029279551193567,4.957854392311587,9.923239031662414,-1.0357430826239988,0.0007293915784762576,0.26809919819065997
23.36,-2.4320642087186557,2.2798650042517434,11.694789052336397,-0.471984332629815,-0.4930511385084545,0.552574079306673
23.37,-0.9018448819359859,0.15062950276118628,8.254654593541613,-2.0813058605867245,-1.03740284707005,0.5378053681042044
23.38,-4.085747794300332,0.11483170560480958,7.484115491943369,1.52401409303875,0.5720995938424657,0.7141331892963754
23.39,0.10276571356494313,-0.451835395533928,9.943717628256627,0.2817234038102535,1.6633361858449247,0.7702232436045953
23.4,-0.08231540842819843,2.979832974621356,9.239152911546018,1.1499435239728286,-0.048469407349061744,0.0284883782923189
23.41,-2.087391342527241,0.6079824960957677,8.408399767858466,-0.7300264775838788,-1.0722943642733025,-0.07023109368454955
23.42,2.6327117962685698,2.5122444483147484,8.981483013709065,1.2101275265126135,-0.4733928328049184,-1.9343256672438123
23.43,2.297187064245523,-2.429512483074594,7.222130995335653,-0.7867882748547282,-0.1269436917344865,-0.7854182434363508
23.44,-3.2004692700782638,-2.7875893941465466,11.969194437355617,-0.7837877665270978,1.4412932984060063,0.5811538127462573
23.45,-0.3037668151731382,0.5095262433224996,10.894915180183714,0.7172940788726578,0.5657434291517432,-0.06308031745561804
23.46,-2.464806163490447,-1.3474446488351304,9.688113721856322,-1.300378436974594,-0.7567366163428625,1.1123682565822557
23.47,-2.93267727409895,0.8941548320975189,8.71520660013897,0.5044423758555059,0.9984498006092217,-0.3641095435701008
23.48,-6.104833528794325,0.8020006179990348,7.118455621694112,0.9324590403949757,-1.0893312040017356,1.4294739953965183
23.49,-0.025436126688458204,1.445964458868347,11.054397266249508,0.3962760693762833,0.015633647325392228,0.6199884836530749
23.5,4.889448024762232,2.2185908082892865,7.975396780857604,1.3405906018791096,1.151200121985961,0.38999945942120245
23.51,2.165902065687414,-2.0139976522269114,8.533714870643916,-0.406588032055432,-0.2896463417508564,-1.238402219553414
23.52,-3.8695782762261786,0.39710271376705525,11.903653426275357,-0.4281554787351702,-1.2038705517287283,-0.27439830459185266
23.53,1.0841864325362487,-1.1176530103629163,6.772037314734897,0.6478173122624415,0.28804471967234624,0.6879435875802697
23.54,-3.2438089678140813,-1.9375870630546144,11.87910684861442,-0.19945129475567158,-0.05533086321557817,1.800477914507756
23.55,2.713134294556195,-3.063473035748728,8.176506403375617,0.15174192674348705,-0.6902758585499956,1.3549231696449247
23.56,-3.033038317422725,2.6697975628575388,9.938602424804557,-0.16388954421912585,-0.0018040066704426228,0.027673507673183294
23.57,1.5690088185146982,2.622043663801371,7.895788766419824,0.31056479386638763,-0.061428881659765455,1.0697269676382475
23.58,-0.9976646609683313,-4.697194778047164,10.999447525298578,-0.33848653337065965,1.606482923289424,1.6667694291366995
23.59,2.987072610448627,-0.0941480151860432,10.659795641300427,-1.2911789573417474,0.7965935728027255,0.9768161014652156
23.6,1.320229425593324,-1.8292989779659272,11.121758326468749,0.6743640763775957,-0.569659125796833,-0.96772296215495
23.61,0.5398331889747767,-0.3361163990727672,6.872185697682712,-0.3728290378442802,1.2101855137573447,1.8723460638222156
23.62,0.8561836145616867,1.6199450703603577,9.770080756115666,0.5660534327236479,0.3300736175021581,1.040247086444824
23.63,2.101756446901953,-3.2185585106223877,8.560563518603866,0.6686747068886689,0.13397082721781167,-1.2802921201180817
23.64,0.519892011420724,-0.3409314552003131,11.67907752974923,0.8791469703676164,-0.8799685853853376,0.8299491684185121
23.65,2.266097005971429,-6.10073094943188,7.047300223022223,1.446546752494456,-0.3752845279257627,0.48101450081306374
23.66,1.3020562672829312,-2.8504483639435527,10.779966532364044,0.8374667015499847,-0.7206075099536603,2.353967764092601
23.67,4.001132487387685,-1.1705997739187683,13.076713828183776,-1.9399606726189855,1.9670618023270192,0.3589056673621107
23.68,0.5702899544530217,1.3912248085795496,9.900792972296376,-0.3486568053901626,0.8511111896946859,-0.28567314358806717
23.69,2.7265346565536794,-0.38228873530821605,6.614842841098923,-2.1687575397309664,0.5366201151541398,-0.38298806532261764
23.7,-1.3050717580781348,-1.8500301201859026,10.2200284286608,-1.2642616171682763,0.42222388534996047,-0.892417914717281
23.71,-2.273710425200555,1.1854047750223096,15.173564485839176,1.2729784037405043,0.3568541184994491,-2.137502701616066
23.72,1.642711682723005,0.617039109571279,11.920274525615781,-1.029594723676338,-0.12498956774282653,-1.0544702595012598
23.73,1.6975793591952064,-3.638388557463509,12.15370062563668,-0.8898408263283245,-0.6567292583201848,1.0727244998961902
23.74,-0.38559380847727764,-0.864804194739683,12.036906648892918,0.6440857740079251,-0.06366517380346076,-0.9825664991983138
23.75,-2.960906014759944,5.113905569338216,9.26973953171294,-1.081220380607939,0.4127475987477341,0.08768536450342966
23.76,-1.5633935699758392,-0.4541904412607372,10.30357699679979,-0.9526162804910376,-1.7691751345921432,-0.03745374758837626
23.77,4.779285443985236,-0.5427487887311294,6.244271653200231,-1.5325524716337398,-2.117114240024274,0.3992276227479559
23.78,1.2225751498581607,-4.483586413642778,10.688979709119273,0.8905201213806356,-1.6318704300605278,1.0707470272828659
23.79,-2.0380188189847037,1.3320308018039366,11.860136354430052,-0.9983063548110294,0.38025314650244335,-1.1391187432101824
23.8,-0.7863046227308836,-0.1389357692253121,8.701503780518037,-1.0859338557065241,-1.162275791489897,0.135591770946786
23.81,-1.8417472103187187,-0.7285141196151503,10.147495128157548,0.022232257850819982,0.37375158881671033,0.20522508050673655
23.82,-0.12819056147078356,2.634398779817608,15.611585236201202,-1.060993162617555,1.5145638455929376,-1.299034288719323
23.83,0.7104285525710352,-5.12938926525205,11.843693987181696,0.7103361517728919,-0.0983634418121462,0.9482340845057816
23.84,5.60553268676283,-2.7209889624113557,9.640141724467608,1.4829104770319694,-0.8990032540415522,-0.6516470077194982
23.85,1.0275835962661584,-0.7246445307896158,11.417029421009016,0.01663315728862714,0.13236645618349105,0.7559994021000083
23.86,2.2963788688992395,-0.3124267483186856,10.328944066771841,0.4900482486821605,0.5732787460235755,-0.9223167561368227
23.87,-5.403322104671142,0.4675036946686583,11.625216425374127,0.12083306013218532,1.4726311413714996,-0.21620586273034756
23.88,-0.10831774098280579,-1.0042597358437024,13.333024166991093,-0.16427563661741368,1.2037729968179411,-1.0779432156905686
23.89,-2.146545475789257,0.2875249366692765,5.559024124611399,0.33032592015902795,0.06625129074656422,-0.02971945105894648
23.9,-0.555955416285637,-2.432483210821291,4.7742133558987385,0.7254935057975055,1.323884461853897,0.04552286780901037
23.91,0.9382693088880156,3.394204126621715,10.29889132110285,-0.17790840892781584,0.5510634209406506,-0.3924380094684274
23.92,-1.8710281704802962,0.873250940806246,7.032109286340743,0.702426018923841,0.15036787073303676,-0.3968673720833357
23.93,2.3154467467701787,1.2689053227479359,12.396145094668604,0.33883204101978337,-0.5158499869452888,-0.46303156583252286
23.94,0.11470514240818999,-1.6133794826246548,11.449247957630119,0.34953030308617555,-0.3672632333848521,-0.8461066260716062
23.95,-3.2004794422034966,1.63545274630561,9.464681481913026,-1.1912565790460177,1.4781476293954312,-0.6641841666095712
23.96,-1.354179083953748,-1.1442076363121616,7.153401815142856,-0.1262407099916196,0.22642385855197927,0.38408433907752315
23.97,0.8838612089828679,4.194596953141893,8.297414743187346,-1.8109777199831245,-0.25476857354828053,-1.6344442557021557
23.98,6.083478689646026,2.2142306756411125,10.439065128620536,-1.3152356428150727,-0.5044831294704986,0.7699486124984621
23.99,-3.4124700013805325,-1.9165291573172998,11.730114579280302,1.5090286660777137,0.9313053466686421,0.5180968271064946
24.0,2.694059136770993,-5.49998891521886,10.701323999872692,0.043145994124621584,0.547479552604443,-0.4631872573548036
24.01,2.8027860186867506,0.8502207182803443,11.934917143312392,2.4840609383619054,0.06152268992937603,1.2935509375237444
24.02,-0.5287986286313096,-1.8257161801388468,12.0580603056689,2.340448313459701,-0.9873118141640661,0.19425715737812363
24.03,-0.8276839654843294,0.7340904792988088,13.151818764631528,-0.8774579984510924,-0.26525121218969266,0.8865576841481378
24.04,-5.903289572161479,5.824345585786945,9.325189616743122,0.6858348251399666,-0.6298247045752917,1.3193759268079746
24.05,4.367062384375675,-1.2337468344027247,13.000117611636352,0.38168464414564074,0.34838586910013486,1.2418881424171322
24.06,-2.2345660542978223,-1.8629946854695494,12.564412185196183,0.9538503803177489,-1.9285736642739342,-0.749141095987607
24.07,-1.0609528859083475,-0.7123128377046325,15.252952042346466,-1.2911613080761801,-0.4948581728426709,-0.12691592001175095
24.08,1.4836524674821536,-2.2554565546955043,7.637914614421158,-0.96252884376341,2.4822590641371534,-1.2676503158106411
24.09,-4.125306666123216,-1.5049041121472346,8.555830270676434,0.5571777862242113,-0.6914240410683757,0.021358234392309296
24.1,3.2899328759504107,1.746328911001706,13.124080795728997,-0.042104688526171476,1.5707237079178726,1.3706244203762443
24.11,2.448391392126004,1.5054734810490387,10.894834455213909,0.7476014258427698,0.5032060345940538,0.8646169779814814
24.12,-0.6875589190419242,2.1820437254090397,11.94359524666887,0.5341807460835332,2.2462051504949536,1.572512748253565
24.13,-2.268973314231204,1.1448430683527375,8.656779430584674,1.3950659447104472,-0.22110703567849882,-0.15736366279742256
24.14,-2.506577048276075,-2.6078236040811995,16.554253887405043,2.54195543891072,0.8191113376336179,0.19736514795739676
24.15,1.6818506841083969,-2.2821396992558647,13.727793958849979,-0.20801304106462845,-0.5650458012183129,-0.08134917573021974
24.16,-0.5999359411357288,-0.3470615237336385,11.423082474465895,0.7709337649158989,0.09175388372561874,-2.97130235448394
24.17,2.01810236262777,-0.769684803055378,7.860797361549828,0.34374462337655864,-1.4492272086707174,0.8594658291323962
24.18,-2.5689108995634813,-2.8829881152946912,9.761279005834158,0.4399181906160629,-1.7946417414682483,-0.47844442865835246
24.19,0.2978599676507818,0.24553683607943308,11.050684264829375,-0.3272761570284611,0.22345568483753697,-0.11238196713800849
24.2,2.2275655912719743,2.680077194114701,10.707019942377494,-0.5842533415371495,-0.9339380453211497,-0.5172114995127044
24.21,0.5104986860327808,-1.8884422499505849,12.615984821592999,2.3776548429210007,0.485542565091757,0.1680304214103498
24.22,-0.9153476197218546,-1.9053002961490726,5.152700626191695,0.5578100899467578,1.4080271515880651,0.8713803403673229
24.23,-3.827351719790725,1.5236466730394749,11.08489524843439,-1.4854638211417361,0.27917366191959436,-0.24362298491682866
24.24,-0.9548587075102453,-3.9822177055320918,8.74610430136282,0.8862018231775729,-0.880597035932702,1.0575887523983303
24.25,0.35096569028138497,-0.4077979901205939,10.269790310788114,0.38203441598631105,-0.8806628445882275,0.36719688684775353
24.26,1.8410979914328303,0.2772909587470767,11.402309434858866,-0.20035875036432166,-0.22472158547222984,1.0246904103316645
24.27,1.0564567096496325,1.8475672050297431,13.691606741771766,0.8353133492542271,1.5836751445460118,0.03663681882728575
24.28,3.1899953929797866,2.5854827914549476,12.399179190056667,0.7333382237775111,0.7952296002465931,0.23891475259469683
24.29,1.7938352656716359,0.579155036273681,7.9239016293564655,0.1632386445522612,1.1189374922167272,0.3604295708986977
24.3,-0.1253691199692698,0.3611859403788297,6.977036527887943,-0.4627743018802866,0.9446951202405129,0.040757283391816994
24.31,2.1721572103366866,-3.823945124216446,4.073104540065968,-0.08250758100070707,0.5815864592415713,2.328006822828702
24.32,3.771835872701163,-0.3023900560505308,9.79632418661056,-1.7511836103585126,0.08231078979953996,-1.2624304610258912
24.33,0.24399543255784742,0.9290334704339314,9.90048035293675,0.14634666793498716,-0.1447602719192964,-0.05960352102941386
24.34,-2.1770171176394824,-0.8446589917861211,8.320456370901873,-0.8990911274821803,-0.01920760525027277,-0.7344220381635731
24.35,0.7099633632437242,3.508169894347004,9.998072349142193,-1.9635022560185906,1.5430808561343112,0.21005074409932845
24.36,-0.7260631119466403,-5.131772107656862,6.597294936607148,-1.0953413255603,-1.0359940756946424,-0.4462476167158794
24.37,4.197679220317001,-3.0579004677555517,10.666946196363492,0.6007490064766043,-0.5233842376261332,-0.21566374635203178
24.38,0.8169352805421557,2.1238315697945147,8.079096061522527,0.14771736617590764,-0.7887101765297517,-1.3007392555453015
24.39,2.3333579857952467,-5.456617464129835,4.20309811388931,-0.2345088555651361,0.24220463097777292,0.6447889403829636
24.4,-0.9434606151278426,-1.2416692783852243,10.370449129501196,0.13979962080109076,0.07259736544359298,-1.6020363360259064
24.41,0.9212402918463177,6.9661855912898325,9.085259306772095,-0.8713500516634528,0.364307284782508,-0.023444036500888363
24.42,2.5204109272460014,-0.7057830872187311,9.687151286615,-1.0852903828273819,1.047261719607353,-1.9066641078759516
24.43,-2.1635047947253296,-0.4626598761922378,11.248144460491257,-2.009072945145816,1.1306486419709834,1.434099656625272
24.44,-1.6259931881891787,-0.4252723157774788,11.21727689216592,-2.084352234334271,0.15491538416736367,0.23882832579039626
24.45,0.795505038293689,-2.6738976865647417,10.19011273098175,-1.1205058262206666,-0.49857239577339635,-0.612308201697965
24.46,-0.009090314689749386,-2.699341379824873,11.636178171960676,-0.5807317934854653,-2.050507505846838,0.6464041668459253
24.47,4.463314665843942,3.184119345841216,7.3291407993278135,0.8098001408740656,-0.25911017986876966,0.8714904781889986
24.48,3.0172508958434476,2.1610568793217917,7.92377974129916,-0.35920907976566513,-1.432175592098207,0.4406381454103813
24.49,0.9056672324070784,-1.8949049479915354,7.022431225090953,-0.1958747728156499,0.37087128276168635,0.7048671222364575
24.5,0.8646800651407909,-3.7740522097488856,9.003787362735602,-1.256524832490259,1.132398865238149,-0.24781661079834508
24.51,-4.072968019484501,1.137890685896593,10.578808407696862,-0.6274158166848002,-0.33293214168495944,-0.7161614064252487
24.52,1.6627006588553648,2.03940233894296,10.141763707045195,-0.1698101326545988,-1.5388241102519733,0.15038611775538893
24.53,2.3215419410089546,-2.079052044962521,6.397446743708389,-1.1058662994735258,0.39468183072136903,0.35894768134877747
24.54,-1.226510769692221,-1.2310424888381075,13.829602623192113,-0.32605066578665703,-0.9701316207742314,-0.18464538496364966
24.55,-1.4060088541163835,-2.9346116331207974,16.08212072284774,-0.6688486135043845,-2.4400448620960455,-0.7257052879030802
24.56,-5.666280406471294,1.6020076695843395,11.153102370597157,-0.7047708674123768,-1.818656011577915,-1.9817211414562388
24.57,-0.625913821266771,1.2399285230591555,11.528093280890275,-1.0387496111263306,0.3671798028465146,-0.04111025766552847
24.58,2.457029916446799,-1.8728639191934136,8.612530858770862,1.0570258026121186,-1.3809069598137398,0.41054453575663286
24.59,-1.4165243976273099,-3.9217149302774956,8.051312150127742,0.3685546236012756,-0.9361785436418852,-0.14158723130453704
24.6,0.6855474085857709,0.5930622819689153,12.885870737492784,0.5067500513443661,1.2002116674617125,0.21530499821055685
24.61,-2.645503717221429,1.7650676460414902,11.592243515195262,0.2141014669230052,0.19105057513439286,-0.7336527495454204
24.62,3.6865937629912016,1.3324679255783882,6.826732353975213,0.1598708846181228,0.20632768290149933,-1.137488438717472
24.63,-0.7776156627745544,-4.589717823780203,8.71172318144615,0.5431179952609595,-1.5516829716480813,2.002823571607351
24.64,-2.436337697639959,-0.27730517011970585,8.1746032533903,0.7367050238147176,-0.27431088263242814,0.2651219504341967
24.65,-0.8672894962813579,1.7418387762891698,8.813650399315328,-0.15182154104025242,-0.14848871735798036,-0.207601370792487
24.66,1.1251363694153864,-5.938484333251881,13.0672285157088,-0.6865526602295858,0.002174996781379527,-1.1560905821007477
24.67,-1.197006478558357,-0.7525534367631577,15.885926664485845,0.5045737320503869,-0.45660779406711777,-1.3248326489099633
24.68,3.3564732500286016,2.4308133904459557,12.454460243102567,0.3862293244443496,-0.8931037043351123,0.15679243297946077
24.69,3.2694819535025688,-2.9700003880732697,10.960889226557232,0.3496015464766561,1.473991102440381,2.0134009552291756
24.7,1.7270764195739723,1.438518931100987,11.095972365517632,0.4045289381610093,0.7775682640119976,-1.284873924380445
24.71,3.978638778379895,-1.343346073212075,9.5628806223392,-1.9483504194791654,-0.7283094172131096,-0.7103966383910135
24.72,-1.0840312509434693,0.800905752728991,6.466656652757498,1.6500942383894297,-0.5561824620257069,0.019758145738577558
24.73,1.4431861706685019,1.8241374064606177,8.708220961482834,1.7913388364793106,-0.8187044560715316,-0.12621379165843008
24.74,-3.7855620178552045,-2.1442611471063424,10.412270981597947,-0.8545950651353557,-0.3055095969095217,-0.4254742082735926
24.75,2.27943804464339,-0.3651894348901882,3.8760777004902156,-0.22847558283131028,-0.39124673672728877,-0.6179926730366766
24.76,-3.5184820150471907,-2.215444850940424,8.653437583767458,-0.2721958150519227,0.6969957722885453,-0.65120765619902
24.77,-1.2558580211971528,-4.413293539622892,10.749798025589183,1.1773316855223184,0.6777368602613492,-0.18628313924770928
24.78,-2.1794419393943327,-0.9480879083136967,9.208110548182024,0.3950060226979354,0.38887189811074596,1.1433466866471267
24.79,-0.643723601020225,-2.173409260283801,9.876208407851097,-0.021435209340468435,0.10697982318790691,1.94023141019976
24.8,0.5429266775360938,-0.677759017946373,11.114247417503613,0.16605537345183927,1.1106629537112223,-0.8809664615630528
24.81,-1.149177702700746,1.5073933910196031,10.584442129543355,0.5190536229509206,-2.2136270103336413,0.1879900816554456
24.82,2.0677762143462313,-0.11439299950087194,6.791304678485628,-0.12893555577901122,0.7380312093633132,-1.1162353874092779
24.83,-0.9219773059765776,-3.532853420697433,7.76945757891908,-0.33376558887343893,-1.590759831505161,0.37859527750180666
24.84,-0.16931642188636398,-2.307164570683162,7.083248693443595,-0.40125378090708647,-0.7591811112984037,-0.05220599328441639
24.85,3.9874258573613663,4.14406798840717,8.755800999160407,-0.3777741917707213,0.5930814730559265,-1.241055743100898
24.86,0.46954114554869714,-0.3714912368816739,11.08961009379069,-1.9396215945746074,-1.6904302936164621,-0.23651694837352463
24.87,3.729172389456164,1.7058595644657726,10.132165825949658,-2.041887058969196,-0.2535685657989977,-0.8018491046180123
24.88,6.893196045561078,-0.44823419291951716,8.928264591684826,-0.18679714157409436,-0.707850190937789,0.2887922754302451
24.89,-3.1522536428865013,3.306193527810041,9.922620218472836,0.18306147241366716,-0.4164046423138966,0.8228475412068152
24.9,4.570858205228127,-3.58191516533179,8.244034994237975,-1.657601803043807,-0.33731490086078636,-0.8985659124814325
24.91,-1.0677788744572014,0.4449527749266932,10.90930990377138,0.457008534351264,1.7216188084202138,0.5944033107956253
24.92,1.4058879937894728,-3.3170957940446137,11.98586724550087,0.19501185615420497,-0.9349911601082795,0.4392769521540023
24.93,-3.6580846241176563,3.625943808886624,13.530575346803625,2.424731844741803,-1.2402653185279826,0.8203321612232359
24.94,-4.636431671587729,-3.2417770574797715,10.122946512488552,1.0710739351160785,0.23671836015137396,-1.363773441985047
24.95,1.622053634140825,-3.3196524676214363,6.136986963107425,-0.10368889069318335,-0.8638760417571717,-1.4258059654511468
24.96,-2.3071945280377477,1.806735788229743,11.886731884383943,0.08489167133693913,1.014030022163102,0.1862020948704154
24.97,3.0673736616714975,4.619983132200724,8.403766949482204,-0.4788324882824701,0.630523969589215,1.3553888269148775
24.98,2.751332427769741,4.015927579028977,9.738041012805743,-1.3670619889578814,-0.01857616620054566,-1.619897551108628
24.99,0.4892310006885473,-3.390012808167391,15.689688752495648,0.4957714238825438,-1.5963485078888875,-0.32787663255861177
25.0,0.8715548488148619,-2.3473965309561198,11.8740525786733,0.32489753433843044,1.1056881410347068,0.6352455194022661
25.01,-2.415140277899392,-3.880683229955232,13.448553053860751,-0.06283952464959665,-0.35533771952808113,0.8140025384361061
25.02,-0.9010398115065181,-0.3798690427096464,5.777781867073568,1.7787956729694725,-0.05282331744066103,1.0784148215637488
25.03,5.267014755713289,-0.5217897765407671,12.611036744307025,0.6178712174698473,3.0417360949793544,2.2906036216862744
25.04,2.3768609308498907,1.2135006843324057,9.867356600089996,-1.0252477330022736,-0.3496580323582196,-0.9897059998406784
25.05,-0.43087802961870814,-4.265775104749807,4.944260850094075,-0.7085086132649981,1.3346357423875699,0.7074125390387891
25.06,-0.007141740314502228,-0.03853447141934307,9.465393460611113,-0.1814383693862583,0.08803016803275013,1.2965001907731015
25.07,-2.374405236532253,-2.3869502070515924,9.28420853478204,-0.28889592530731,0.08351766659775609,0.43088634073758886
25.08,-0.8998787799812562,-2.329728142335305,10.111527796524998,-0.7218445980197542,1.03867039489146,-0.16394209923978875
25.09,-0.24985718858926162,4.543127515874085,7.468596063869672,0.43367684666545236,-0.8550075404837582,1.7157313098277138
25.1,0.6639600209796881,0.03885628308991936,10.223175057146095,-0.5180201369018028,-1.060707430729776,-1.0997215732656036
25.11,-2.5485231078367763,0.028947153994848825,9.310093291593454,-0.6952667522357852,-0.2283572124007129,0.4520290166285118
25.12,-3.1593728646892396,-1.8568460327071568,11.086039855015843,0.40355292606890586,-0.6344822458902474,0.376794547833959
25.13,-1.526922383573768,-1.1024860118734983,12.4725132337247,-0.11123611620756914,0.5654835962745114,-1.5593588924026511
25.14,2.1177979341281823,-2.4967418865179103,5.465260478572295,-0.010067421583838231,0.5702424993275089,0.7987670239651193
25.15,-0.8286095124798792,-2.0068520155990615,8.908280946869995,0.7992695733808254,-1.3615368684466131,0.4405397230216302
25.16,-0.01489192201639172,2.6519006129764118,9.626252624581978,-2.2663161971525363,0.7801055594085587,-0.686323301007226
25.17,-0.6739957378669277,0.7186178371687578,9.569195117854019,0.936483829919109,0.5061343914581363,-1.036974369108089
25.18,-2.059674987586898,-2.5722050606384665,10.019728402764335,-1.5578350492206317,2.1113190412215777,-1.0667369299920566
25.19,2.062120832469857,2.765675876347113,9.504620281995264,-1.0844358264198024,0.5145800884511746,-0.06149308944078168
25.2,0.701445643293684,0.5308692586173658,9.837343478592786,0.6066115854726898,1.6768834313549572,0.9539264438357563
25.21,-4.493849955755625,0.20693079028107134,11.949194141359907,0.44010763617727905,-0.1843762495571546,0.688775008642863
25.22,-1.9611933815835612,1.0273444505120861,12.308895574808043,1.0511314883973601,0.8044576344121968,0.07700423076702012
25.23,2.208408235175821,2.2140423797878483,15.01083933073454,-0.7632494694468673,0.9750448599488472,-0.6689694171264825
25.24,-1.6481589844321383,-2.8249667759141825,13.868721617233483,-1.0516501160565215,1.4922135431792445,0.2577392568300073
25.25,-5.723082240011065,0.45495646590762884,15.456541844563597,0.061055908778054696,0.27056890598891375,2.7918575474200833
25.26,-2.4354024807056933,1.3714331677564484,9.306164301900754,-0.07067580937413731,-0.2659878914751307,1.1477552872632226
25.27,-1.6968815540651185,0.9330867930621772,6.337259312181005,-0.6217868779828549,1.8550978391392627,-0.8117229846042436
25.28,2.1420547938766212,3.544963205436446,7.326631728821724,-0.10452515386179025,0.583322898459636,-0.4863731011102044
25.29,5.821028785060064,-2.312016191873875,11.472583481866932,-1.935899057959165,0.7546637023909792,2.2177173254340308
25.3,-1.5749180956720725,-1.4261439127085305,10.374934345081265,-0.13469019922695777,0.9704210548249431,-1.9228841366041955
25.31,6.127076806613716,1.6932266562055929,12.271285413777095,0.3652181075765325,0.5406866514700176,-0.345132498793509
25.32,-2.071984055331027,3.804549447627825,9.991899992566198,0.4513540332129238,-0.07455314536709338,-0.676086996479457
25.33,-1.1741594583616939,-0.08676501954440098,9.05695899462655,-0.7074524458887161,0.1020698892832558,0.1270554892309157
25.34,1.6307279817050737,1.1886226497421262,11.955272899162118,-0.4111412309844577,-0.4219589663838318,-0.6396246267885395
25.35,5.807398896147874,1.24388163050995,8.769849629261877,-0.8044577255951908,0.4824702574834871,-2.1270444180344787
25.36,5.318285320615461,-2.7393231232868462,7.438973615430038,0.5583572817695275,-0.7797520462423009,-0.8139560498262942
25.37,1.1474342799283355,4.2779755680600005,7.099053707391892,-0.02493738033067035,0.8554684041953448,-1.4285264453732036
25.38,2.2833272407807486,-9.377401913453836,14.328606134662207,-1.490952230735491,0.8701931292651395,-0.1612499365420952
25.39,0.5814431455454485,2.0812654399441377,4.459055181733729,-0.46548234543700723,-0.05427667351504685,-1.4759728335130817
25.4,-4.791748156369894,6.461816576641221,11.222046389258596,1.725761164825852,0.6437798054748919,-1.0443602812750254
25.41,3.147244922025474,1.1319156861713686,7.63366432566857,0.2734564152552995,0.7835870927901123,-0.8015433914387539
25.42,-1.8853260449475437,-0.48461099065905877,11.430468340560928,0.14565787367603353,0.12870600178088448,-0.3458914780057718
25.43,-1.8995750270339191,-0.9619036554034522,5.6227971192297135,-1.0845951246063503,-1.009973321065395,-0.3152984728945412
25.44,-2.3726412782957933,-0.3117633357268623,9.640983414202697,1.8180454676175943,0.15234789805643495,0.0066182057765919065
25.45,4.1846931369736176,-3.6195306845030073,14.289324232817027,0.6726932186046948,-0.20007269051698984,-0.4758291941766178
25.46,1.397876096120771,-4.089263271255571,10.5540409697446,-1.6126433264253306,-1.1909978321253862,-1.5263540224296943
25.47,2.145250099079187,0.9266187741409598,6.024693647358879,-1.5091183915647852,0.25718341522869187,0.18698034811969433
25.48,-0.9224035263923966,-3.3964558191623966,8.241261424320916,0.03545777842493719,-0.2598813165183773,0.35072562768875265
25.49,-0.4433512367826604,1.5118461448766145,5.14560806371248,-1.285153026003836,1.2562824398835595,1.115516215556784
25.5,0.009386893837496546,-0.19364609959694648,11.244425258778886,0.07824629853783538,2.4873251865576282,1.0316103751683345
25.51,1.2058277511897153,-0.24218718597889685,10.689731429482592,-0.39604578323135836,-0.1527983400516624,-0.48471266372158084
25.52,-1.5151724005865699,-2.9175317496736293,8.259424986763694,1.0187996444982352,0.27107425834963916,1.2207330045481888
25.53,3.00283860389722,5.130965437661445,10.21748065945215,1.7202847198304667,0.5743404789057255,0.14430814866394895
25.54,-3.319247677702853,3.4008432441694527,13.728954409995907,0.22716572454273848,-0.5322831532086123,-1.8510953396013605
25.55,-0.4794973820887033,1.6462937718698787,15.551407135285611,0.06260672349116718,-0.8394786800527816,-0.6861240721139708
25.56,-0.6493017196860842,0.941547720258001,11.469951625358604,0.27029748428540173,-0.07407511053579338,-0.1558917926383027
25.57,4.703188257970691,0.5950059011284469,11.607086748389094,0.8121869834570543,-0.14924213411302317,-0.09324770379086512
25.58,1.1938110162748292,-1.5197365869255868,8.096404531071942,1.2048495699333983,-1.1225363305959872,0.3547588848029518
25.59,-1.8679663459957785,-0.35863958648424243,7.237751329731479,0.7817637976998585,0.35616174894819075,-0.15676950604291165
25.6,3.796330283882245,2.409039412957158,7.899640752056009,1.5750450788907884,0.042532367070387274,-1.1537010486594352
25.61,-1.750417170972082,3.4424808866597383,14.126199834197802,-0.8154347585352811,-0.6444926521532648,-1.0869389748176868
25.62,1.8556657377176693,2.703276692245067,8.519187137160685,0.15722784618482274,0.22296081642768914,0.3195940912764816
25.63,-2.679424729993924,5.170400956663385,14.501183770396713,2.668708260832321,-0.6182627081109461,-2.2310706850417685
25.64,-0.871009280114984,-4.954443035276704,9.703410007900278,-1.1097150466828885,-1.1931440324815623,-1.4351937803574166
25.65,1.9666448337835496,1.31853785001383,14.777502168752957,1.3418232460460853,-0.8560894448458829,0.5902913117017741
25.66,-3.22917218312776,3.4109111468178557,2.501021254254545,-0.15091655290377592,1.1877148460113867,1.6344624756664874
25.67,-2.2625093856765237,-1.8787464088761208,4.840809150846173,0.4709638108670808,-1.0528786126359653,-0.8320984421912002
25.68,2.29943286932962,2.5481954514681417,7.097143390524992,1.2826672026177504,0.3821337447037382,1.8687605578741022
25.69,2.7995696972239377,-1.0503090781885978,13.019118301294167,0.5392952862064574,-0.46198653230688613,0.7235039016827336
25.7,1.0330761038081804,-1.260860805138487,6.965937714594718,2.2470459077383493,-0.9984126513376439,-0.1371286129506141
25.71,-1.6418367384386148,-2.335425183187129,13.235876203357245,0.15339738182014714,-1.228614528227991,0.2720503716698829
25.72,3.5572300886246415,-0.2867556057103605,10.575719073350328,0.8007393215139955,0.46307884552371487,-0.08222402213014575
25.73,4.742381518247965,0.4602139124953196,9.573413347031556,-1.3773705123327886,-0.7592974934539457,1.1009329719390513
25.74,-3.5669955472764348,-3.0726011080359457,16.04778739885279,-1.4298348336817936,0.8609687832001012,1.8109953402457495
25.75,-2.447006267912697,-2.5101975408108053,10.990402654874309,0.04596120877284482,-1.9573401604413134,0.8218686109348319
25.76,1.3978319610987258,1.6340913491894997,12.662474437231314,-0.12251633932778248,0.5293517824825877,-0.6942794733622641
25.77,0.5002693797628658,0.9525576499913145,12.367501394610558,0.8928777450633636,1.4656062907698595,0.6124136046071127
25.78,-1.6465251687263187,1.1610340652580204,9.604586761144098,-1.0827976818046332,0.08015908108421604,-0.9938535371513193
25.79,-1.5014488238071053,6.179267827951173,9.373034370879104,-1.3909036242762243,-0.34236261760363157,-0.24998108545944872
25.8,2.9596456733501557,-0.5185632441706671,9.002242097106524,-0.8482933989437278,-0.03487913401508323,-1.0521458591757336
25.81,-2.4865927792373985,-3.9405519906254534,10.2891963244918,-0.47219250734542545,-1.7991190317687762,-0.7546894662419821
25.82,1.881385380735338,-4.167934858729765,8.50953500102903,0.14129367341411875,1.61860608294762,-0.6240681108713112
25.83,-3.203717869400205,3.2997953806592086,11.78656519345041,0.8794197538972827,-0.4380705039140809,-0.12752968207998033
25.84,1.445240160191839,-1.4846043836485556,10.865410682783017,-1.7029164830399757,-0.6683281545258161,-1.1366934494523988
25.85,0.2141156659337524,0.27871185245573,9.634271155273936,0.0861826652745377,-0.8348727201466329,-2.382563788550947
25.86,0.02766664042624552,2.9892391286285886,9.964197731734949,-0.7331053788771443,-0.13826275374174585,-1.5136402254920012
25.87,-2.754625384801362,0.9011469893941382,11.671276213512398,-0.2947564986503595,-1.641071353798755,-1.0073206280362232
25.88,-5.251167358389557,-2.408176270517664,8.5441979931986,-0.8388116690476036,1.380026477615859,0.569513692272773
25.89,0.8481379829356975,-1.5603928817754886,8.655777760007627,2.170057331654718,-0.11630623475643186,1.2145247453869643
25.9,3.343523388877037,-2.2348353211361953,9.542214745308161,-0.9514502838731251,0.19376827774113908,1.1518453647711324
25.91,3.7352933049060066,-0.5616620073489181,9.677467613379791,-0.6240416157049351,-0.44351805720534604,0.4228531835532073
25.92,1.8929159342814856,1.6228639747283164,6.24129019459023,-1.2842681338018722,-0.14068366245154734,1.4068723441698048
25.93,4.0086197811936435,-0.12639621845383942,6.418577679266663,-0.4196154406432784,1.3982221381423652,0.6427728353841047
25.94,0.29909092024558703,0.4935311799292087,8.54516205916961,0.2993183513728647,-1.510484889310334,2.140074327730061
25.95,-3.8864367796666293,2.2701015209269255,13.453734749762821,0.6150363443360054,0.11501854428598232,-0.1366522239294597
25.96,3.411856817513767,5.474227107852841,10.791138092649435,-0.671786070378039,-1.1287432003741158,-1.0700543861615535
25.97,-3.336727834558344,-3.0488895752356737,10.03818654588106,-0.565739375407815,-1.4506306033904397,1.0078821855655131
25.98,-0.8855334879095661,-6.500381185249533,9.265153900189807,0.23670399772584713,-0.002687889960832295,2.1373195708770076
25.99,-1.2738197718537971,1.9536447985429066,8.074541750066638,-0.3531465954763367,1.3966221658272433,-0.5969795426727551
26.0,-1.7985667570209358,-2.2958241104181862,9.40241389006136,-0.22583697066063546,0.6469059163196876,-0.5820524340702705
26.01,-4.107896104170086,-0.4737215161583893,8.184171664927343,-0.5201574792179575,0.5378003678408283,0.4259363386710945
26.02,-1.8140714731658527,-0.33845872648609987,9.004430487085122,2.063149067445506,0.41333552256539574,-0.6395491903987136
26.03,-3.875202914518017,0.15902585949267112,8.749249350674843,-0.17797006855314312,0.13687125582759732,-0.15578108239911403
26.04,-3.455725388363411,-3.017624524477009,10.893674327562602,-0.516357769275063,0.5556464596153423,-0.15356411759232336
26.05,3.3855026540997084,-2.518703197356408,7.811403659596989,0.6845345993141725,0.4106793694075655,-0.3550628908054962
26.06,2.3307521590266838,3.0641672158153503,9.206677923554022,-0.9092683705667046,-1.7641547701554021,-1.2434136275082017
26.07,-0.5435625371789888,0.4016332747936782,12.283515749775606,-1.6458543926866955,-0.8975886186585723,1.639090945987603
26.08,-5.02384492941816,-6.911813637810785,10.281657942905285,1.4545004425144008,0.13063965834629598,-1.1907257290547508
26.09,-2.7658029447643813,-2.185268862159352,10.104266593364006,0.5365937011135583,0.5500480055867703,0.2840427323887752
26.1,-6.625502318688633,-2.169469788709561,11.173428679496181,1.0888048423983852,0.8130764747049486,-0.9353132959967867
26.11,-1.3130326687333855,-2.936026636586571,8.818350006888846,-0.17226957537968982,0.013912473903901764,-0.3890487568047904
26.12,-1.1418858415472908,0.5431976683167323,12.000373899279074,0.6185834815721208,0.6147163010913735,1.5390080575674665
26.13,2.171226126862316,5.197479811084675,7.962480437999395,-0.650031796881822,0.9431413159391856,-1.2650786061389738
26.14,0.27740240224080864,-3.528541306249923,6.618435487835062,0.5406537930531701,-0.3674596888286762,-0.276784325798079
26.15,-0.1457715556630623,3.4539273618926423,4.617237814128499,-0.0763043915883291,-0.15332843508279942,-0.7351518675329729
26.16,-2.684534059813465,-1.9895516170688832,9.698580174528594,-1.2225187064834449,-1.7283341989706724,0.5780377128126716
26.17,4.794156055836863,-0.702252724495873,12.038447913762337,2.264562466356323,1.329574781905865,-0.26935530815136
26.18,-1.5138185642341853,5.375311219785836,5.64933313125765,-1.2872844967632966,-0.027146811304577176,-1.0918032692952704
26.19,3.932740316401075,-2.075606013525046,12.439346937969788,-0.40131869274441445,1.1093057086721696,0.47293122962775574
26.2,-3.348577490377713,2.4843138902798128,9.205346108003665,-0.8202818043230058,-1.58272152040411,-0.7222152528610104
26.21,-4.78425591246422,5.819383180991446,10.019309096217885,0.3555264507456623,0.2865843357649767,-0.2701460609769259
26.22,0.9393068995601361,-1.3429641920298847,8.45330156470658,-0.4131075128038686,0.4089102963296282,0.7399760663990671
26.23,1.6732524561698823,0.9680323628272567,14.753064941453871,0.35149190059247026,-1.8676329633231854,0.4124269613933393
26.24,0.6844988355947043,0.1692656024673962,12.410038883336172,1.1827149170409281,-1.507578277811448,-1.1642880897328942
26.25,4.738205952147823,2.024007951400177,7.229221694075272,1.6891640287206175,-1.365101404509803,0.4589476962517701
26.26,-1.0255107252523086,-0.18223059624755752,4.033864030420611,-0.5489945601456048,-1.7082134559429454,-0.22367873904383645
26.27,-2.0824106215674747,-0.40588902391267073,8.067810587454593,2.6287322305163294,0.22397721306049126,-1.8852679610448868
26.28,4.2938579165715645,-1.8115807047658097,10.943523420761634,-1.2889219131423966,1.0951232954232537,-0.8012270256996418
26.29,1.3422130037410132,2.4299798274931996,8.83889443699003,-1.3362251936806613,-1.57928958955257,-1.665081358161508
26.3,-0.5677446442190259,-1.1103531208093134,10.729864164320997,0.33586782901650614,-0.5144446585055963,2.113501731056606
26.31,0.8681676355519996,-1.0617846994264781,12.643384340561056,-0.6298883579183994,1.34725756283083,-0.9417806579266081
26.32,-1.8687124738373075,-0.6296914518204119,12.463277302544668,0.5697769891357592,-0.7916104241609302,0.024126987093842655
26.33,-0.370792409789866,0.23836545472709506,8.564640938092284,1.372649026119291,0.9221447070722679,-0.8306527919657768
26.34,-0.043651727138079154,1.5210100345348998,13.430845018287616,0.8666805163289945,0.712603454093405,1.2720525836499696
26.35,-1.1357283864955894,3.0022153634171245,7.531160377449219,-0.1255356783014696,-0.062294502179787645,-2.2607156872039913
26.36,-0.20748245660965714,1.7980129088639294,10.937862023697196,1.4278550013046731,0.42219726702156146,0.553573538999691
26.37,3.693412352982377,2.8434168927542385,10.741245315393492,-0.1371728559603215,0.17287667715657806,0.45246783309869554
26.38,1.2638475864308039,0.6390530008143697,8.65314040082598,-1.580988247620487,0.7301194830697957,-0.0534099766816876
26.39,-1.144332279155352,-2.3646324339097986,8.382719948812005,-0.004248597528628365,1.2448506457466422,0.777408096275999
26.4,2.2583372873240553,-0.7531978779406251,11.55150693439575,0.6213833070354265,-0.436116939500864,-0.23450734759309522
26.41,5.815515125351132,1.9836938649596116,11.845615478565982,1.5745935646196803,-0.4609923362063818,0.7860552503318058
26.42,1.820631968800105,2.1930280138597236,8.933401059143568,1.1069804539648995,-0.22790476132019147,-0.1776775764914754
26.43,0.5647804295368218,-0.5153446779003653,9.78493669111168,-1.1836519295012744,-0.33811090249411757,-0.8434647820922287
26.44,-3.9467703732830155,-0.25979865030123434,6.359577415481177,-1.7993080358402866,0.2554862431372271,0.7042547975476848
26.45,1.368824202379,-1.5928403496240868,9.544206389099415,-2.4365787512275685,-0.1647391414571203,1.5551136339654805
26.46,-0.6346808362091096,-4.608279829257386,7.60768737579177,-1.2336448038106667,1.7288520369130336,0.47278022953570076
26.47,5.436111057992752,-1.2605534835236585,6.263518707951375,0.7245955760372887,0.9263890185311426,-0.12815889818861953
26.48,-3.9119431805122673,0.1295423382237638,13.74762119263401,0.5128280855195401,1.033982954660607,0.9445219343191638
26.49,0.4084384575282845,-1.8686381448493783,6.710909485467299,0.7363764156063082,0.6873548629597622,-0.656093607682441
26.5,0.02448070207456083,0.7231115641706808,6.49612359263903,0.521273583030069,-0.3080856005812119,0.3506624891097329
26.51,0.4294783137894309,-1.2474207858357136,8.398220147063904,0.8370655238921783,-0.7479119619752319,-0.8918903853036074
26.52,0.13307607649506636,-4.62653303204129,10.948372434529585,-0.3201263871015023,-0.27580575950904584,0.6085984500706019
26.53,-5.52577954184065,1.3349572596514565,13.447196573503522,-1.468860093287285,-0.8611872517350901,-0.0025437259267490292
26.54,-3.529773550836279,1.2312287439273726,13.526377917458518,0.23162524365297493,-0.055777243246614726,-0.3442365116886914
26.55,5.210607856769538,0.09391572765856822,13.41420795963802,0.5616214671551845,-2.174046761668829,-0.3307089225104131
26.56,-4.06476547848575,-0.29804242908514345,5.550112859375581,0.3853016976683416,0.9016330196374462,1.7458523804882948
26.57,2.653125035831108,1.8444351951944085,12.582791542881179,-0.512765107808087,0.13754232712751097,-0.9757662785675801
26.58,2.195306896737802,2.5015781571425757,9.410418931846397,0.36088046939169,-1.8155834080748725,0.8174573140564244
26.59,-0.6879553487838528,2.135349702031823,12.318044013743952,-0.3149918769639049,-0.9528586566760427,-0.984722650251962
26.6,-3.896839686284253,0.221703917544004,12.970654376346266,-2.224028894395461,0.5298935118267716,0.7313945742928801
26.61,0.5700366931339742,0.1622237954845237,10.11107077248027,-0.4631043392540378,0.4598269435282337,-0.02640289113961983
26.62,3.1383293921321966,-1.5762360482112623,9.281203441928662,0.9817026823543743,0.8564924936664413,-0.25293136022249907
26.63,0.5233034477338528,-1.6290841650013854,11.27289571174127,-1.4818659516277985,-1.6641697336333399,-0.5879061919367196
26.64,1.0404956200361026,1.3370490104096269,13.363937879099883,-1.0097277146570527,-1.4687616912493602,-0.3970221373958309
26.65,-5.686851356893148,0.37025634631162174,8.838649706095257,-1.05509188533231,-0.6823984838090076,0.3724482296325213
26.66,-4.971398076401933,-3.8856099717961725,9.011542388714485,-0.749548274585911,-2.0410581684415576,-0.051753831727542964
26.67,-2.5991786836500657,6.654592853285817,5.376569577048873,1.0198911547213005,0.7432344019153962,0.4400987443609599
26.68,-0.9737339121906252,-0.5859133481072849,12.715343909343712,0.2392455621871443,0.32719943338827895,-0.1323831348897984
26.69,1.8399283039367458,-0.6447990156671635,5.1487569598414815,0.23923344914623745,0.9849217145236855,-0.38460875364203656
26.7,0.31390317707613463,1.2148191296414481,9.253837315746608,-2.4930715948613784,1.5198659223211788,-2.3736711578524514
26.71,-1.611164306425864,-0.8661556848884808,6.238870274617052,-0.167604490615948,2.1822574330023494,0.7824268526615213
26.72,2.471417254745775,-4.611707106866808,10.168535094302737,-0.33815180356696195,0.8888454553467292,-0.26975590522441334
26.73,1.053766163291978,0.9106967477914868,11.628515752323175,-0.4898204575679716,0.7002356906081137,-0.9630622149360804
26.74,0.09464665558700311,2.4227241351181377,6.4032853178227604,-1.0375538417961085,1.27668904443886,-0.35556380728423376
26.75,-2.8014513513281694,1.8556575037053242,6.8064068056080185,-0.4603225039551153,1.0823664963338069,-0.2536931801134689
26.76,2.938552441494812,-1.745095889502665,10.000419009479847,-1.1210834613764793,1.0249499074410706,-0.015902126236206876
26.77,1.7252385416281368,-0.43769744123197585,11.563214855004418,0.828534081281705,1.741327414126351,-0.9967787688252465
26.78,-0.3475132299504259,2.6140654947279693,9.049379151865782,0.0027106528912991257,1.5559519514404005,1.122772462678754
26.79,0.35165412767643334,-4.558057240066054,9.833742693538099,-1.0856082413690922,1.554676172395129,0.3404395219607603
26.8,-1.986786437967379,0.7462756464154365,12.414266981291357,-2.6307310410883096,0.8868609164984109,-1.5362149460373093
26.81,0.7428578888441791,-1.7745802248601297,10.580124313391803,-1.5743502114781955,0.7850015197862442,0.31399505379243775
26.82,-2.431461431015352,-3.6380634986094433,12.629124726802083,-2.2098671131485084,0.8387431261041868,-1.2931282539046927
26.83,-6.493088467232218,1.0367798937816197,9.144704473558749,-0.2270520172538686,1.321384543075022,1.0340840327923047
26.84,-3.91339329214595,-4.824967157661089,4.817451051320129,0.7128691997138015,0.17548986418302281,1.4056821987335066
26.85,0.2906658881599026,-3.1502471768065297,7.789637886369521,0.6452487264112504,1.4492661852104671,-0.9385617289337735
26.86,3.410902218216211,7.159964666921136,8.899266855649675,1.4081485504229156,-0.4639376054226324,-0.5501113712273257
26.87,3.235857424023777,-1.940242406963714,6.430892112144256,-0.13177047946348927,-2.7941262601253003,-1.1337107788719591
26.88,-1.5312699191440498,-0.3532109029513929,4.391521504013946,-0.44069904940795745,1.0343329797019907,-0.5474270355663129
26.89,1.2483893066672755,-1.246065901057508,4.562979760099811,0.34445783888579773,0.36755585242698885,-0.3221489687586988
26.9,0.6090842330729851,-1.378886942540023,11.754989070814748,-1.4055094780730717,0.5842492328270308,0.24706545368244315
26.91,-3.0088434938099455,-1.4278897620364654,7.779938082765782,-0.1353026350047325,1.0064825183731891,2.1116791013746687
26.92,0.6764454163211207,0.40393480916212354,8.622477152938822,0.8234845239012535,1.003495287317112,0.21639834008336437
26.93,-3.525123825719045,3.7007437846710043,6.613061604850277,1.4233740998748932,0.14567663888478938,0.1298652859036945
26.94,-3.6897884169028092,-4.760058400574307,6.108483262256135,-2.8407412717883105,0.5292578649709261,0.04101382890712224
26.95,-2.2265586544315497,-0.8649638104783308,5.6791955472542845,1.1246243040788362,0.670500971070634,-0.04279272551684993
26.96,0.9204412560241986,-2.030786070002733,4.97844888202804,-1.9837386534001222,2.7900955926314994,-0.36445831763545633
26.97,-2.5998113839471637,-1.3670295823154182,10.182015331646083,-0.24730207073629884,-0.5197704692803828,-1.5143039924231245
26.98,-2.732110864862472,-6.783168887197709,6.396958301199795,-0.5737391462718716,1.4570078366786428,-0.3338746077746175
26.99,-2.9937680293087396,-4.349827616625989,11.91424095764847,-1.5698863445852103,0.8443503726635734,0.5437375549260145
27.0,-4.530805916937277,-1.392064188899475,8.974117143166733,-3.535995283219581,1.4398834625986687,0.0456436880426955
27.01,-2.3868896420144807,0.2050888068465171,7.987946745508088,-0.3631211398057949,1.183482500101185,-0.628407553221338
27.02,-3.797944997158497,2.7375187193928094,12.237045732243516,0.325341638457603,2.5723336187417267,-0.898960433103498
27.03,-1.236282305564225,-0.32563715489257206,10.635389738876107,-0.1783163044641777,0.41686322700579903,0.2377818260031161
27.04,-6.244602426075654,-2.88556513157926,12.785529344952701,1.3020624332034467,0.49851577952807224,0.9838437738730967
27.05,-2.8044863578959007,-1.5019323882018225,6.637349115611448,0.5823062845391473,0.20021123845136035,0.733251742913898
27.06,-4.622265611578114,-3.1164028017577845,13.433624833779632,-0.3426033214261675,0.558302694268909,-0.7605060751496449
27.07,-4.037889113646608,-2.0938550344431364,11.75231388824299,-2.35950947197814,1.6799563155030772,-1.7636319408500185
27.08,-4.569205387360061,-1.8284591022799592,11.744379148826345,-0.520280016415889,1.3297782400245994,-0.8254304004397802
27.09,-0.8155704982999832,-3.370196982729266,12.680806243518909,-0.820679741250161,1.8348029379603923,1.078171823930257
27.1,-2.0564754809085195,-2.248515299119088,8.499977262833536,0.4563042235861011,1.0929542086283346,1.2020300766338456
27.11,-3.4607670926049288,-3.1437181476169327,5.666759205281192,-0.17570967435040774,0.20020196371199328,0.8069505859717815
27.12,-0.4641981095962331,2.613935342710662,13.494492278727225,0.13587168592885818,1.6577374905972404,-0.39112690000216044
27.13,-2.0638021863336022,-0.39263434999910407,9.68048502124304,0.1408773525870629,1.1897259948347076,0.23724945176048973
27.14,-0.7156248262315699,-5.544347219282255,8.773331399290566,-0.5387184371417504,2.483016714439732,1.2908960895269292
27.15,-1.7732072563379007,-3.612870341225482,9.888308990004138,-0.731368182639669,-0.9926427247251098,1.6769965458880014
27.16,-2.156050116727653,-2.222809818406958,9.7931574591458,0.5954315938556707,1.0921163639952591,1.672270390968671
27.17,-3.0887920004200677,-3.0165417827815584,7.6480452342964345,1.5360311697713231,-0.9440744731183779,1.0407347174056953
27.18,-2.693125699142387,-2.5724003933644415,6.6774834418203675,-1.0079286868137027,0.9215956689027845,-1.1316386661790752
27.19,-3.3202842846363136,-5.420520033018095,12.472951016775673,0.36001032599128785,0.12462619739255332,0.16251660033312307
27.2,-4.088503821797818,-5.833592398308581,7.823734454414517,-0.45763263238713037,0.5181047348869945,0.23240340827351305
27.21,-5.677381319610403,-2.2185726811798636,5.625844050472525,-0.26590661403592986,1.0358485819240195,-2.667299583390221
27.22,-3.7186999655508983,-5.528225580832466,5.916442568152664,0.1262908091837947,0.09169438389906442,-0.06015656228585525
27.23,-4.9526893299918235,-3.943736700349145,6.236615599393026,0.4095922515974458,-0.2611614516513206,-0.36014428639085505
27.24,-4.027819684392266,-2.1480595561930826,12.242742741053991,-0.46008672051934363,0.8269011485428688,-1.9147020979832081
27.25,-4.405812342472876,-5.478650281979583,6.035422909393487,0.32480627275720053,-0.9240921632197117,-1.1945129207380623
27.26,-6.510160333728459,-3.1020629427325894,4.24558269356069,0.8772673614497288,0.982878266210744,-0.7801539581282916
27.27,2.5165395132706436,1.2194352087537488,8.81967935208229,0.901366767160642,-1.3813204412770987,-0.6705062962262228
27.28,-4.641705910964482,-3.6503462276547705,12.719939854070555,0.20184732002760764,0.09666945556306189,-0.9402018886646675
27.29,-2.568552857021661,-1.405102026107009,10.276226407025224,1.8999045848234473,0.5846367062894084,0.3517294270056203
27.3,-2.4885705894919434,-6.120375200142749,6.885070100469649,0.07150994746436068,0.5713547354611364,-0.3132214179507378
27.31,-6.420026532981691,-4.725395849974523,4.4038301165797735,1.461529656763304,0.14212346729560432,0.25469316715620277
27.32,-6.236598778837932,-7.51608804099062,5.8322472937397345,0.09157840286020108,-0.8040043279187853,1.1483983116165253
27.33,0.4229124574746037,-1.4926080274718176,4.40528332073607,0.20491783702292987,0.3742040867636092,0.24620874788812108
27.34,-3.360951973499453,-3.871894337427472,7.243744163098141,-0.6873166376567225,1.5599107274491755,0.4859810633046333
27.35,-1.9442865510623752,-0.1680437567617572,7.317993772963476,-1.0950549133120167,1.5010462017820219,-1.4309928617245695
27.36,-5.2604486283098515,-2.563905647301091,5.226508164128033,0.7812340534342879,0.8533114608247168,-0.017039514741280293
27.37,-2.682836125967855,-0.6569128046394295,7.522435885189971,-2.723056467476537,0.545252524623547,-1.1108484411472908
27.38,-4.749120125285907,-0.8215384324867836,8.656301736719124,-0.5583444356583637,1.3523169723583779,-0.7154576086998244
27.39,0.3134786356794308,-1.4927261841488453,7.22661015045803,0.8095489619899497,1.289966958680029,-1.0691220127591416
27.4,-8.645712196022428,0.1373531519371496,7.052024017990039,0.585114743726421,1.7071384481586551,-1.427142476780191
27.41,-7.097488900071914,-3.4682519034860526,9.686444734873769,0.8588044685493479,-0.5525856492760443,-0.026559107353082312
27.42,-7.463555109164975,-4.0624346415396975,8.811078138074086,0.041993623593863716,2.380015115488203,1.162543620469649
27.43,-5.826469184874057,-3.6576656768623743,12.108790810044333,-0.4074985986249009,1.047159029368809,0.5172214405254884
27.44,-7.16925303440496,0.9001890094342868,9.916935554998377,1.6925690920134862,0.04932336270804227,-0.18443036295588855
27.45,-6.258287325374366,0.054189416796735834,11.31476750663079,0.5886098238764575,-0.05597824181636002,-1.0233946940180867
27.46,-2.6048182307170684,-3.8115512622936345,8.683232698530697,0.20736049276043056,3.1172937247124985,-0.12506812458230712
27.47,-7.671478861090618,-1.5201652013397362,10.155384857443886,2.0255144177771793,0.6428689916183424,0.13733476803285877
27.48,-7.383254075774202,-0.5357201770561826,9.698050997276312,2.14486301698225,0.6384242196298865,-0.24541354464623805
27.49,-6.50903600746801,-2.1269428538214052,4.110681832779536,0.6638040850121094,0.6010948024898989,0.6973957577523718
27.5,-8.004029323855923,-0.41103022623835495,7.277184947157826,0.76522078070818,2.1795219892186153,-1.0572536141053401
27.51,-6.826545843705462,-4.9137367765964015,9.098553139161158,1.914519005803111,0.09174148228178632,2.213776663990496
27.52,-5.558828751691994,-1.6353293143943817,11.552524881381352,-1.1875646624343212,-1.9599993297820604,1.7033063012227945
27.53,-3.692360147926845,-3.4836814589241984,8.590794138465544,2.002656357852055,0.001461816623637327,1.0822904123680213
27.54,-1.8429212213674173,-1.286388771654783,5.255078459700316,1.2515465737101583,0.4322237195288442,1.1563697165505051
27.55,-4.6911051111623046,2.0521882049059235,3.0851316935141933,1.1697216351074229,1.1582463432852128,-0.8355224648523049
27.56,-2.8003715271274485,0.4820100024397349,5.785931243929353,-0.5097107874094594,-0.9691988806503312,0.9685750353192172
27.57,-6.467810480178832,-5.10309094586469,6.157294397867911,1.6647973136705536,1.449029072639028,-0.7438949819492776
27.58,-6.670906427698199,2.8293290569709497,12.098760876712259,-1.4287707412276516,1.4412218620389567,0.7060691103875798
27.59,-3.836339443038218,-3.07723248550073,11.772812940184716,0.6693257787639845,-0.8423987832281358,-0.5071298385491319
27.6,-6.609410284296433,-6.151179309442095,10.779130918983409,0.2969752137223704,1.1435181423677456,0.43884073944065316
27.61,-6.857039357641597,-5.809110279445685,8.649733897009705,-0.6671816204963165,-0.08077537392021983,0.6238985839964406
27.62,-8.491672176418394,-5.337380747990522,8.864630117921728,1.9109482111995253,1.2586303772114318,0.06505184828882797
27.63,-4.152105215884745,-1.9153492847467315,9.466717318343699,1.746649940309184,0.14991940915634663,0.10759717261621335
27.64,-5.575611377400658,0.6523786632340403,10.679806933907255,0.2029255479096691,0.5299640219382704,-0.009629657980041686
27.65,-7.294971999167512,-4.063026984100931,7.408205930906944,1.1745850910801439,1.5894855542782031,-1.9449256676192213
27.66,-2.721271749671192,-5.699645921345085,1.829522923297609,1.5158875822463025,0.12118760833090797,-1.2625296863788207
27.67,-6.442260249135524,1.927131283627525,8.762935089885175,-0.7623820544678657,0.20618170579104844,0.31084655952457324
27.68,-8.382385955534142,0.66123386422665,8.4713803356075,1.570620044239793,-0.3127844477150019,-0.5930273643613603
27.69,-3.5599460699005183,-4.216909905261986,12.437968386169686,1.9773820059718972,-1.6695367754241042,-1.6607504706801377
27.7,-8.470152316525823,1.0792908689488445,9.944532368100251,1.434476596553804,0.017200645378344676,-1.5901027782925217
27.71,-8.672783161529441,1.8804989644934607,9.093391242052636,-0.271204991102061,-0.5407550651110429,-0.15858987582760062
27.72,-7.639228349050173,4.114545730674299,3.239371757603535,0.47099438914266895,-0.6816515900860707,-0.8160242632504018
27.73,-6.59345775249265,0.7440176119908148,10.80717650781233,-1.4292308623015715,-0.31019359963000853,0.16557014134788467
27.74,-9.614748939802126,-0.6669868226566209,9.688180627363096,0.7366239800340816,0.01985854092642103,2.332051903796532
27.75,-4.245946657387098,0.3999666619097013,8.048495274987522,1.558566469649241,-0.03040689334471338,-1.9974726038157389
27.76,-4.4101084205146455,-1.315293741510257,8.788548846587691,-0.3338548586076875,-1.545958004556402,-0.5529186852262284
27.77,-8.032988472515141,-0.050329679648243086,8.010547264162597,1.8138403090558746,0.1206079763693545,0.6179373405409444
27.78,-5.742148203912293,4.099979936686555,2.857040046004794,0.7953728230152318,1.6198288134245515,-0.5268433528562544
27.79,-1.3935639695227602,-3.7206050600833214,5.5927344409299895,1.0140180276189392,0.3343081616630227,1.5610141042259065
27.8,-8.464867085574994,1.2330960437199197,7.915701679426274,1.1924214258773431,-0.342947974685425,-0.12925804702297228
27.81,-7.796741189302949,0.5440071155191171,3.7574215126762613,2.4911457210769856,0.04622419335767643,-0.16976205913122044
27.82,-5.218320784157016,1.9607797360424808,7.326202126118802,1.3985964287214,0.1534289633775171,-0.4300851649592783
27.83,-5.949446733023392,-2.0604821209109074,9.585917338762048,-0.330679420988206,1.4787198978583702,0.290596579613047
27.84,-5.958844490463462,2.595346406878186,3.155532947049643,1.8519393741282175,0.17234510880046672,0.17423186046797795
27.85,-3.0680688242038197,0.3046534023406753,10.97022805228241,1.1386957024839002,-0.9572333207376498,-0.2477739111498367
27.86,-1.0169527445688873,-3.0553050461554094,8.543893067968499,0.25042868280758557,-2.3989985937461666,-0.8730093817225216
27.87,-5.7239368719887675,1.923647502042734,5.730093334081982,1.4104929608911885,0.8857823499931796,0.5333392982791323
27.88,-7.740252380898914,4.902069178006148,9.003422759286785,1.3827672456283866,0.3099225972836842,-0.7716290050772509
27.89,-6.9363271918611185,-1.1905679234656763,8.571701145042354,1.370116091925048,0.18035053042662702,0.8353721533365653
27.9,-6.637446277794584,-1.6961957937663512,6.187510701601363,0.33023506440011385,0.41554011179079986,-0.3191848202856952
27.91,-5.383525247796975,-0.383771598306601,5.751599143062444,0.3492934622572119,0.9781096358881863,1.0804537724327972
27.92,-7.500279103766712,-6.098948863525449,7.67294626763375,0.7624247698597839,1.7475908684867354,0.8833431473009313
27.93,-4.84121316641117,-6.249865882935012,8.776689044698262,2.100405741545618,0.9375944899221892,0.09577080627660498
27.94,-9.194128845605125,4.12380387271879,8.17144099930781,0.2154833351485288,0.7507565595144167,1.187934698749469
27.95,-0.8726453807894323,-4.635297712718092,6.1792982890222605,1.1860783155651013,-0.4350197325682709,1.0697143008033008
27.96,-3.9351826966746537,1.8472364876518226,9.620684272900276,0.8841498376417816,-0.46580862302178333,0.1619867042655584
27.97,-7.965231014714064,0.7579674889748192,9.394706287710706,2.166138531066876,-1.4500593113045452,-0.9523437705677411
27.98,-8.14682001536217,4.861269008564684,7.63608298424622,0.6319910046732806,-0.38209001729936864,1.1412869482809858
27.99,-4.5624820464640985,4.259381549899367,8.176229227398048,-0.27289735757579525,0.3350674001073166,-0.45274392305624994
28.0,-2.78674378581294,0.2461759059442316,12.053157426156435,-0.12811631066855073,-2.4386617285956547,0.622797785513876
28.01,-2.3673276697109835,-2.4579470936060246,5.935756589996627,-2.2019728434007395,-1.1916828488593596,-0.33685480955370645
28.02,-4.915187449887073,0.194701413360288,9.189965911313395,-1.0813229364632135,-0.2792180920336208,1.4096416499620648
28.03,-4.051403855463776,0.561024130832092,8.649790045076818,-0.059647889101512974,-1.5743134925699556,0.2019368477045219
28.04,-1.836525629307575,2.655421832944848,10.003381903841172,1.5797118056189796,-1.6267352511535345,0.764301952493716
28.05,-6.824832490078386,0.9542173040936408,4.9989143858550165,0.7225212251073041,-0.029940716966427916,0.6233219044672961
28.06,-4.937663828957931,0.2885035406178751,8.339889869030136,0.2365187735888625,-0.3058329765623288,-0.09222684853342261
28.07,-5.872259259307844,5.44840483232537,11.840558431329779,-0.5623016881625471,-0.796908207258531,-1.4887347734185372
28.08,-8.244346543675658,-2.2656850076843087,4.754595936074743,-0.4770402616270557,-0.16437734725575603,0.867121989519703
28.09,-1.6104127348635489,3.8055078358594665,11.526335614422525,0.159456940741258,0.38114268550230723,1.1924002232649018
28.1,-2.711258662269822,-2.155535153791706,11.751948262584673,-0.42667840159263715,-0.18512230439974145,0.7954650381281985
28.11,-1.7921180153704448,-0.2336168146108608,2.8187624364556614,0.8137002846675374,1.115903759707477,0.06796779191875946
28.12,-5.895992873294174,-0.1533393622255519,7.226394959697528,0.5300155100955813,-1.6705868656010348,-1.1500018504085783
28.13,-7.414438972175178,-0.9818217398551439,13.241148674891782,1.5225742863638043,-0.4519470238315147,-0.7440799901643746
28.14,-9.684295835555728,1.2158165943260302,13.530360049400342,-0.19734647456735854,1.2516839132069333,0.33088196458422303
28.15,-3.8612306927900306,0.5015735804097954,13.241513372520252,0.6383092053882807,0.7101825681399667,-0.2910536243651856
28.16,-6.039098842250109,1.131320321144412,16.184758716816944,1.868529061900499,1.7633742221644702,1.28483188968633
28.17,-9.016314834522127,1.6305200180652415,11.780145571272412,0.9278875037133577,0.7807151042024374,2.5165225874137263
28.18,-0.13501314461228908,2.864420233501013,8.493535046654097,0.5732883005026219,-0.275187798863959,1.2587582726555715
28.19,-9.106210350809032,3.4109200524851504,10.060925997122402,2.976193120985379,-0.2711710604585413,1.037080806183098
28.2,-2.5332458745963216,-5.0490314745055365,10.515750301190415,-1.7214738938423437,0.8485002240359815,0.2309139704990916
28.21,-8.179150438798143,0.5640495262025345,6.9365869704917955,0.24762403430003252,-1.374502041294979,0.9793161079091361
28.22,-1.3911312761210608,-0.7282838986828852,5.026910224839018,0.10322678318604572,-1.2805838546944859,-0.25031447500757353
28.23,-2.7543929730218863,2.5620731776660017,6.708119627161043,2.280871971177492,0.6609914963310859,-0.23530465853894333
28.24,-6.478840957991589,1.5662022151886608,8.725212188954284,2.0572367647121115,0.36635931389145926,-0.5703663641596037
28.25,-4.633124402768317,5.602342762284109,6.60534157334712,0.5771408995499637,0.1386745743918376,0.439879326309744
28.26,1.2626784727091165,1.4509101311315475,9.54709024226476,1.0388868344136577,0.8328554334545862,-0.2804108401257081
28.27,-4.802711962704629,1.7627348667848293,7.46438727540567,-0.704662753785599,-1.5446286874281965,2.0843931522723187
28.28,-1.4816812021116936,-0.31156840819830345,8.257295303082905,0.09741455821441941,0.6638103335680166,0.5556994638295836
28.29,-3.636853944818016,3.750635065014345,8.280450918694738,0.8527962250850247,-0.43031053270571956,-1.4353263937007639
28.3,-3.022077385903925,5.992267194206938,8.869502497631416,1.9009378213812937,-0.3359639664878844,-0.29405610838685314
28.31,-6.126810812762211,5.001772291965544,10.407464820775921,1.4707040787424293,0.6824258198358236,0.5403159597991132
28.32,-4.2519384828907265,0.6595809785109314,9.9790888252141,2.8850589272072,-2.730015371691953,0.2887377337387818
28.33,-1.9301594387302643,2.8225340128141774,10.253119948537506,1.5726869518085373,-0.9233055160203201,-0.5293876362973324
28.34,-6.085768603699522,3.5845640938624492,13.25889996870715,-0.11116242757664474,-0.6644108040188909,-0.7374461137972458
28.35,-4.338337971016028,3.2879352875066297,6.78561642731966,1.2453135789116208,-1.8000300040439012,0.0367354863170902
28.36,-4.915061113694689,1.9965694939584693,6.8072515020019315,0.25458697090912547,-0.7895399027005405,0.7470685890782448
28.37,-4.664273972198433,2.360385785465888,8.548057818711232,-1.969806995420051,-1.0645127659763522,-0.18610409757918245
28.38,-3.065916797915426,6.644502303811324,10.530503551042083,-0.6725853794911768,-0.8587501692685048,1.2993912788836308
28.39,-1.6875239050397397,3.6574732567783457,10.478812148093034,-0.4291293722475268,1.2757231091265502,2.1424032128509536
28.4,-3.848556869783083,-0.5563366370155216,9.864207867147602,-0.14865501605541098,-0.4271106776265769,0.29625201100216886
28.41,-4.76137051083923,4.105762262300755,9.644294538973712,0.4775036807901954,0.06393218544081403,0.6175716683921545
28.42,-7.283859942760097,8.080912073092062,10.409237231049602,0.22272010763414316,-1.5725545324270995,-2.5616302255493553
28.43,-0.33571055012838213,4.822579515464328,13.284512140532211,1.0705021547928661,0.21902342638042915,0.11934908597616058
28.44,-7.595382430453914,4.157082549252134,10.616823804402662,1.2174855453280073,-0.6285973771536867,-1.0795956806427598
28.45,-1.5992642750089396,1.0939213392421356,7.67695695663436,1.176881738994382,-1.2831302080639189,-0.7939934496865555
28.46,-5.548166075275872,1.2452575986205772,8.930506558113514,0.2446362928402253,-2.3142859735757337,-0.48536012070989665
28.47,0.18726286407324277,-0.4562808060468515,9.51684582955076,0.6054473852100486,-0.6432088728491749,-1.927336301730004
28.48,-3.2135587410366697,2.7437683168929388,6.781937961839894,1.4204878133610466,0.24516816897866145,0.6523814226839953
28.49,-4.07230356265647,3.0028418120215843,7.091536735009469,-0.1785800673647439,-1.9712091406827612,0.011769066512228595
28.5,-1.7822069810552355,3.1389025777154114,11.504416217727403,-0.22415476247639235,-0.9977703859700553,-0.8912727025698115
28.51,0.3912073143121515,0.45347418555983277,7.38945557290115,-0.7891686707202703,-0.925302794117156,-0.006518898647581229
28.52,-8.026730158037347,2.705774892372185,8.70363561646971,0.2914665050661741,-0.6903910548092795,-0.8378196832511293
28.53,1.392867770142975,8.476515252505884,6.89753284378498,-0.2573168878537991,0.2821231102283678,-1.1982177752631342
28.54,-1.8127161935299603,1.0422166828297388,6.852689284467436,-0.5504307493281244,-0.48248859412880984,1.1912708087410182
28.55,-3.6761338657357125,1.929798803480435,9.348284945647732,-1.6816360278712967,-0.23626561310168137,-0.22006257306798138
28.56,-0.359888503710998,5.826811890818956,11.322575185541968,-0.5767549983985661,-1.1736458349647831,-0.2605548466250249
28.57,-1.300364901209877,5.250554451152796,8.082817475956118,-0.01957990287114153,-1.3869421733402514,-0.33167418127797477
28.58,-1.1150772500124453,1.750378408072085,5.80898537897492,-1.6790105207222723,-0.3074737015057621,2.0075935799843405
28.59,0.16156991495248807,0.503540815238082,4.764298404815598,-0.9859191776898115,-1.5315035220348592,-1.3567733208678037
28.6,-6.574277403889619,1.8756526699678315,9.062244592164186,0.8635193671551267,0.863665112586602,0.9989285792030769
28.61,-3.3488800121116165,3.7850641663474707,7.520575145303737,0.4191755153368871,-0.4207415705709753,-1.0301413330802287
28.62,-3.112395788561335,6.330310003160587,8.172276415624985,-1.0950013661453837,-0.7072974227897293,-0.4315637855395429
28.63,-2.9192456214893316,7.126450191533505,5.557320341352209,-1.201800494808916,-1.7629246617554566,-1.5398214734439917
28.64,-0.983365203968465,7.416935418568215,4.558084422372251,0.3474321373485322,3.084735725833454e-05,0.40186528786141973
28.65,0.8015254301949208,2.9119599030567467,9.390544362619181,0.9605379102463817,0.383129448385199,0.9215779222590539
28.66,-8.27578598690569,7.133737954039607,9.623406718636588,0.3412750292337109,-1.7087136273929617,-0.24588627253562517
28.67,-1.7284543520963125,-1.9695437658775354,10.436741364048416,-1.704952341801106,-2.426322662193929,0.37144243683283906
28.68,-2.306800843056855,2.28432558439195,9.710129893858609,-1.493875436634702,-1.6611584544893188,-1.161958519241503
28.69,0.07591091089831048,6.952941281389057,7.34926341463634,-0.875570931226907,-0.15905867040455535,1.4539830860331564
28.7,-2.188125494412265,3.9606024744134083,8.110002475928642,-0.08935710713283229,-2.2824056131244346,1.3453237206457476
28.71,-2.488578928102064,2.9723964133575733,6.440260063644333,1.1023640529281702,-1.0411236086268967,0.7453200149129033
28.72,0.49963850699042656,1.658142981165212,12.14328010877024,2.800379717421796,0.15932038419358463,-0.6819318470103677
28.73,0.9780537068063424,3.8969542410413403,11.614367208667758,2.04072355449757,0.23724172335985438,-1.7889327951303058
28.74,1.47946355434712,-0.5006134650397058,11.858863997698581,0.3236859035027527,-1.0331339134099047,-0.6929134811944122
28.75,-2.4682647995071436,-0.5996743603481414,8.823507230797533,-0.536053718686847,-1.8724759113450518,0.9017515084909518
28.76,-2.0659828159696083,7.3051381998713865,11.48226903897464,-2.7660007466090577,-0.8922522654717682,1.817580186804741
28.77,-0.40718275436322504,2.349584724730579,5.127000235894608,-3.3480570603575543,-1.6968203530381092,-0.5791095150268795
28.78,-2.961296829140807,2.091744470934568,4.1559462733853145,-0.6822054755968701,-2.6705012223462834,-1.4233253338941356
28.79,-3.7257038067197694,6.442338184533249,8.646406776951466,-1.2341328694361677,-0.031309273034166196,0.9177550381815938
28.8,-0.3075588715934692,7.4635855082321685,10.24169603281887,0.455750631669702,-2.119484051585412,-0.7493489847064642
28.81,0.9407674694714097,2.760886837152192,9.667980457965838,1.0945332904024219,-0.8627513657412302,0.42724391147814894
28.82,-0.7110038626474864,6.026791929844487,6.70372188601839,-1.0184723078818092,0.5864533718189335,-0.8426988250832834
28.83,-1.9106168525221998,4.335385848971949,3.5893440028722168,-2.0302026991126554,-0.5239187973561341,0.1763123305001634
28.84,-2.947277829835598,3.610153580109471,10.621246930068088,-0.7567082018621814,0.7218550361212891,-0.04889467671577148
28.85,0.5495610131245097,2.5511513496975047,12.334440694740225,0.16655981802806907,-1.0253495290980033,-0.03994584124833131
28.86,-1.2516072264656977,2.6405171586750864,10.417881530175011,1.7295381247283808,-0.5615004408671721,0.8073277149520683
28.87,-1.2991708446503,5.008704835520442,13.815017448163154,1.055437733326014,-0.9210714190271634,0.6406247991678404
28.88,0.916223403403031,6.13733159440471,6.6850193945118255,0.6332625771945382,-2.829504622700317,0.5013635331152998
28.89,-0.4319839661505431,-1.7779325533830832,11.163983263582596,-0.6212255040232193,-0.08744480512659736,-0.5398214509076756
28.9,-0.6434709723266347,5.899378760759081,6.958953389466392,-0.4448282638786134,-0.8903091971932238,0.31584412226680025
28.91,0.08396316341953775,-0.9109573984477395,8.612274509219397,-0.3032918715320492,-1.635366353937231,0.1674434972312568
28.92,0.960097845450963,0.920496408934609,6.8058650084477765,-2.6313564047296127,-1.4781042007412153,-2.3170752222437403
28.93,-5.688782409039266,-0.6917401515099746,11.674918707157353,0.18070862567984147,0.31279540784931503,0.22807467405681506
28.94,-3.034563042287194,3.7629737316268477,9.969691070506258,0.7217225756900512,0.018345940787710235,-2.400209071151725
28.95,-2.8766682869235685,4.278755054197335,12.330759701736216,1.1030337916042634,-1.4588861552055468,1.3205332136594448
28.96,2.53106775110349,-3.202814078090334,9.858651641861785,0.5716650786992564,-0.7546729024332473,-0.11613999086331832
28.97,0.8911425240414885,6.9651848110651216,11.59743301899566,-1.9835136716112496,-1.8676683169332227,0.739302226556528
28.98,1.4697531025837667,3.185850889185251,8.440769292391654,-2.1819523377405967,0.12250406904742484,0.23108092153617668
28.99,-2.67367498157634,0.789714582203886,11.374700148794755,-1.7047179083617228,-0.21768896962251474,1.2852437902831801
29.0,2.2395323633020467,2.368220982935922,4.567639920927949,-2.0426316398152,-2.142384710667523,-1.4559184478706744
29.01,0.3175568073628541,4.181580064480846,9.704308380083473,-0.7387160507554108,-2.9917676527043002,-1.9597855780550328
29.02,-3.4661603721304113,3.3065274825255946,9.428212656488588,0.8143643930494198,-3.2725488724289207,1.1392058442786743
29.03,4.7431102066954836,3.4115093708909483,12.884474897226468,1.4857489892379603,-1.8079817725830711,-0.7526226324191719
29.04,-0.7016707229080981,4.5547499434617045,7.294753635742333,1.2056201829620985,-2.7273400234939214,0.3800240522777464
29.05,0.5605697891343464,-0.7309038429344525,10.12380978798821,-0.882956637646994,0.20522499202855626,-0.47312648040606
29.06,2.766527434706654,4.511681863989503,9.014882685782373,-2.1435016620077736,0.615844762339323,1.4278622949982038
29.07,-0.16732552729459882,2.3252218896067616,10.977645831126484,-0.9559007358432767,0.7228129483593141,0.9529891525084453
29.08,7.007216148282092,-0.33215455650916814,10.141147861837071,-0.312941281635686,-1.1637085159942018,1.587481989791912
29.09,-0.24877507285932166,-0.5729034293489275,10.619507569735935,-1.176291920040286,-1.232210546132192,2.2323437745871924
29.1,1.1425231194141572,5.202507841250476,9.149594956066135,-1.3601649225113221,-0.3325930069530818,-1.475608070786228
29.11,0.9352262834683832,-3.034298817216306,11.642456424565125,-0.2441899538991239,-0.2759506947904832,-0.38431084134509014
29.12,1.6266803066163416,1.521775204360628,12.439878606388636,-1.125226704758325,-2.0788506272672613,0.5552929954445259
29.13,2.056474174781698,-0.6987361823586138,8.837783293723536,-0.9324637790502162,-0.45975325327644845,-0.39359653604489786
29.14,4.2857651236507355,-3.038856805102835,6.509669346307059,-2.683251041751137,-0.5452832131640194,1.6232828193972304
29.15,1.2850445503997066,-2.303599488534526,7.65749291149451,-1.3209805147691762,-0.7461528619288341,0.6154925360218602
29.16,5.12055178465965,2.5781201513043075,9.430641595505904,-1.6181929719341546,-1.8712663318794036,0.24791219676404946
29.17,-1.0321509445904806,1.3697558326394528,8.223748059237606,-1.4764899997643441,-1.7506674244642753,1.7467975066889665
29.18,2.856125136719796,2.14291236745726,6.928155853410148,-1.8193039440222902,1.6564441018906981,-0.853936642650468
29.19,4.351215895770985,-1.8001017812304032,11.869907581383966,-0.9348770988886367,1.6713418069075754,0.32822882224546834
29.2,0.13047402987269452,9.136774412060428,10.938817825361642,-2.7491450942591786,-1.494855730414166,1.561287302868228
29.21,0.16520185800395426,1.3634051018938076,9.12033430939161,-0.22918092424370828,0.4763108806289075,1.764345408467717
29.22,2.9328982774040493,-0.16467801473912674,14.406380397154065,-2.4430123970361057,-0.36074400375842164,0.46417389577667123
29.23,1.7838083209248794,1.684415651056046,6.703591832418876,-2.4811394784933,-2.3224396407382666,-0.46735570075148236
29.24,4.412393187148559,-0.3572404086567471,12.473497080075267,-2.670481255021268,-2.3681723267381014,0.334026505429284
29.25,4.1997528513570686,-1.6421784159819732,11.35141410862037,-0.6185645863652335,-0.9536531431119825,-0.06901060273179507
29.26,2.9416178926114047,-0.26462250171438034,11.90105684625208,-0.5737481048089879,-1.4326644359379292,-1.3193808650377346
29.27,6.236994392359141,-0.5773999745145753,9.573183041100325,-1.641764688415101,-1.2530229512630955,0.1321424435818892
29.28,3.736920222558526,-3.859047129894211,6.698178901328753,-0.6339636152915956,-1.582798164984946,-0.11647199083336138
29.29,3.5879378283559826,0.42903196391117504,10.956051601579246,-2.309908752164719,-0.019893756200196844,-1.3065212233286188
29.3,3.924967404742019,0.9055456202714243,11.582381795527349,-1.1871278684711961,0.17505317528041608,0.3048390487613581
29.31,0.5023657066103424,-3.0625672262727632,8.185495954891932,-3.333280908941568,0.23336171711239317,0.06719227959493686
29.32,4.917259798811973,0.6427640506097924,13.695827312694323,-2.695946461454856,-1.193438171117823,0.12244844282146083
29.33,5.305438846590208,-2.5590172361428856,13.251944547274235,-2.2127785566395852,-0.12337729036282163,-0.9586933662968099
29.34,4.635449003110916,-5.124694518203398,12.463581114758298,-1.4834607454899156,-0.507955770604007,0.4627616656819019
29.35,4.185114071184665,-1.424028135566611,10.562102964516251,-0.5668771068988234,-2.1910695972832794,0.4083270485575694
29.36,4.795437904105986,-3.8566384561208125,8.666074340111908,-1.6774847218550266,0.302890647418231,-0.16547042322573896
29.37,3.6897188597060997,-2.7781098062465093,7.232856685516598,-0.4385403786048349,-1.2573615329835242,1.759372551324043
29.38,-1.2582775255655583,1.00195190894221,8.816075878141922,-0.23868569508360812,0.7088995592860791,0.5360626945387359
29.39,9.165844855616545,3.1143281806621443,5.09165620271884,-0.21958485115652637,1.9205342055325554,-0.48891423859322053
29.4,2.436755391133426,1.903067270439752,13.02579409428548,0.5307568460698407,-1.3316057947356221,-0.6157645903032034
29.41,0.2146663563087774,-3.7283886641063004,9.377581247153577,-1.0621654554473683,-2.564600139417748,0.3461014161308485
29.42,3.5163885476493144,1.1532470208941348,9.607224089722965,-3.0529571092982,-2.1880058086443808,-1.3602005370674164
29.43,2.9451594587989725,-2.8038692245220656,14.033327200730046,1.2193893080076181,0.048827125449624864,2.2002377124745283
29.44,3.2856166688818997,-2.5941359901509253,14.88100947426803,-0.23189654179699637,-2.1061292592163645,-0.74208180548254
29.45,3.2675793175785994,-2.0243245581596856,9.477631368558697,-1.9300033125806768,0.22199174295859514,1.312179247449746
29.46,4.323235105368174,-0.4025485771609576,13.73168456818706,0.7870924349505813,-0.4509941458287159,-0.2907788321802796
29.47,2.8911477470536506,0.4322789937901601,5.558639651392138,-0.819174263156518,-0.09300504296642476,-1.4531328686785918
29.48,4.142164681526618,-2.76136540153537,7.060494565150251,-0.49409713233100944,-0.053276807665198045,-1.8332590895591394
29.49,7.024602124493043,-1.897331502091479,7.303946260146325,-1.444538665174572,0.41122004529399225,0.6344336709424424
29.5,5.516242100133541,-2.431028148894045,7.270767102139668,-0.9365084960660977,1.2286034090779796,-0.9350743254227714
29.51,8.650253844691672,-3.7402375699710415,5.90094913022665,-3.5787961056227635,1.4224171702056858,0.30652491123408954
29.52,3.92342083953499,-2.6401872825709467,6.533925894899731,0.923303029122661,0.7057954884846723,-0.3756168713262017
29.53,5.897684810866346,-1.5134155430344682,5.765242587197099,-0.4666631695320715,-0.5374501638472814,1.2992818067672265
29.54,6.457900488258195,-0.004876239095895407,11.251291227939726,-2.6406746201047766,1.1123365213259355,-0.32097631961597706
29.55,6.5967523447083,-1.6634036445842921,9.17205999244868,-1.3318581552974822,0.13594080637984254,-0.11914876321402945
29.56,7.902766760421773,0.9264380607868592,8.848092796603538,-0.35920326467947583,0.435944507787868,1.302576804459482
29.57,1.190654462339614,-2.645783426290384,11.445954330072961,-1.9247860968598498,-0.9642398408275558,0.9806987575616747
29.58,7.539891657710346,-1.0200161295763075,7.399090073531905,0.34664742009169264,-0.9743584384115109,-1.9335458153169802
29.59,7.635131169757741,-0.5859511408408351,6.186265709745504,0.40014011332759725,0.34510260870022236,-0.09476211011411101
29.6,8.042520312441553,1.2662525427471065,6.8509429888809485,0.20873339030218294,1.5876832482749954,-0.49383311318775025
29.61,3.3495161905127695,-1.5541495254158066,6.6446690652776335,-1.1178022689925702,0.6920505579845317,-1.138646870985188
29.62,5.5751018159893455,-4.488801224072,5.424617285768708,-0.4718944265748865,1.0084691390542901,0.11107881221936497
29.63,4.635886679422762,-0.182001764389367,4.804736357080882,1.1139723933930246,-1.0700737615396096,1.674035459969809
29.64,9.111762773842864,-4.716231179223313,8.753775180321625,0.07692274049171244,-0.4729449856280178,-0.2233054402846038
29.65,5.212045504946618,-2.4260989767834333,5.164616173765977,-0.566562318824356,-0.9970228196311489,1.5489543897315328
29.66,6.83634946066316,-2.5448996366715937,11.047994090655466,-1.041523349603949,0.20720445222872402,1.0478582279952047
29.67,5.710655577259696,-3.0678256967378594,7.95532422998272,0.7438722330508952,0.9027217240743186,1.4044090483216076
29.68,4.377938721190485,-2.342952197370825,9.861088853521151,0.6373374385762136,0.997635094333584,0.06794721240684168
29.69,1.8171583382159402,-2.69874323713141,6.0132330113707315,-1.400128530018607,-1.0890654797400299,-1.821325375977262
29.7,4.943744386812279,-2.921156251757629,7.3319174210820055,-0.3890133393836741,0.11880575852872878,-1.019803201804367
29.71,4.560589828291019,-0.4254189922585252,8.643956450707153,-2.3786371014926795,1.4362747808004546,-0.59072130374722
29.72,5.383036388793694,-5.535300552698804,9.57502373413047,0.7343303930828103,0.45996493191535,-2.5675936036453586
29.73,3.288527075610563,-4.368739683396289,11.28506025714876,0.7565619819591318,1.6589805581386572,0.6306733141353768
29.74,3.2345029208584455,-7.324596439740073,12.657298934742283,0.8965387742019381,1.09395225145749,-0.333535905322042
29.75,6.478075101005822,-9.830529113630796,5.525731585601234,1.1089225146622719,-0.10754546762328365,0.9810997263095135
29.76,5.063903084012908,0.9303579715355155,5.491049480542388,1.4669868211802581,-0.37400538730764993,-0.41820036954204864
29.77,5.109064560546562,-3.1663165118588195,9.625395330641418,-0.2800352897576364,-2.3994333059864386,2.275895287279516
29.78,4.954792017222826,-7.9984034489497935,10.850168021821947,-0.31384623889373175,-0.07903880110331635,1.80443699591962
29.79,7.538374229322442,-1.4532213281303614,6.041395903034968,-0.23600200508669766,-0.013186108947770198,-0.2511174847281403
29.8,9.22468374723563,1.0330361030465451,3.8909451992239044,0.23013528169812092,1.5865568517991768,-0.07867967938584927
29.81,6.210297633624654,-9.328503083524575,4.9864664006208965,0.2997872852118908,0.4990485931797144,-1.642528290082828
29.82,3.2336994364442324,-2.352502631276857,5.062819239851214,-0.9720999535905783,2.072749484518693,-0.43107729050358007
29.83,5.452060812512007,-3.344011599466923,6.944777635598061,0.44228520309591995,0.3487874984939191,0.9421469110406326
29.84,10.213036566379031,1.1689565223575826,7.393612467690879,-1.9611099585677656,-0.681820454057454,0.4281662001587074
29.85,1.9816728296359951,-1.9843130757684067,8.004153719298841,0.6015794839859872,-0.9256248808162588,1.353373008483611
29.86,-0.07428413983121462,-0.5469217922852652,4.448039608224692,-0.6878448619602646,-0.5107548508390799,-0.4390945099473556
29.87,-0.3986092776153898,-2.119582713181127,6.382417847546684,1.8621966816777895,-1.1379325930974455,1.5426134321762706
29.88,2.7403636265464155,-4.895362210945791,11.331760321469444,0.7164983707801718,-0.6502378307265028,0.3337172279296461
29.89,6.060456395671979,-4.95603217281729,6.738514429525531,0.6907781717086817,-0.3842817872205868,-2.4129631983941047
29.9,4.957089492932609,-5.081383839434794,5.664194505070375,0.9992711124037938,-1.2090475851811857,-1.9429129755033676
29.91,5.437337541165451,1.3005410381680083,3.6948272821210875,-0.7430745048624983,-1.140345703779783,0.26268319461787076
29.92,3.9104907955437556,-6.762502211080078,4.27752316441927,0.16708103064557073,-0.5983049192195755,0.6286390577620605
29.93,1.6856140696094961,-1.3758627654329483,6.834858900093433,-0.2890492052720389,1.2705340446945033,0.6601595284344526
29.94,7.482951455117572,0.5110467352107451,8.502535655723676,0.8949184733034696,-2.503953034166053,-0.5271437861723989
29.95,5.216276330976939,0.5873330152514775,7.468205856013395,0.24507116593349146,-1.85548466442628,0.7766711254349243
29.96,1.1852167217724672,0.4993714003798848,7.737660499022292,0.3061757720849251,-0.6381957818471258,0.35890589161641684
29.97,6.245922060165996,1.6942767937205692,6.869546753177781,2.429011758541265,-0.4308966337731872,1.974996625243211
29.98,13.27400449995278,-2.8989309850210563,6.193815773291478,-0.11715430989909748,-1.0765319641531437,-1.2316995121354382
29.99,6.631585030842155,-4.317264444326664,9.174388568905833,0.03127525492877692,-1.7234466076841433,1.9254353573831566
30.0,3.734529372552106,-4.508186258413654,8.632710196983814,1.251349993991477,0.7122704439234048,1.121920664589653
30.01,4.319647608358926,-3.5892309071162334,11.307045452239622,-0.49382886034738926,0.8587569794115109,-1.4399523970803794
30.02,3.6231133469537506,-1.5543384903955872,9.921457131470333,1.4817378652034416,1.3470079929784609,0.4772271651087412
30.03,8.175996183315181,0.2031322662112367,7.530811964122554,3.203614088480627,0.168665959552599,-0.0756916853161206
30.04,6.148066838094793,0.08214821742941858,7.522504553272435,1.9763608596059368,1.372168010702773,-0.5400070387918771
30.05,4.726835780714665,-0.7704081375575611,7.135380455771854,1.1849641837528733,0.0645313067970675,1.3216160206401113
30.06,3.8286517233910273,-3.1019697287687285,6.7506599959541465,1.8671623892341818,1.3250817452600763,-0.5924018613050945
30.07,4.614733090907032,-2.1419811779278066,1.9801758240775973,1.0930918929588824,0.7906624948664192,1.2846669124708392
30.08,1.6294516045905225,0.5492242276453161,8.32316800025974,-0.19030010099673844,-1.577264443438223,-0.5698640576716912
30.09,6.514031447382877,-7.549944815748388,3.417969124148044,1.5576232365868248,-0.8375771242510353,1.6185308506846448
30.1,3.5320615436743674,-0.33241242277964855,5.673377410618557,1.0293866666369316,0.23792772630344347,0.6671153466153591
30.11,4.238416197556541,-3.755812476930982,5.465093412707496,2.564727692863181,-0.8817725464692389,1.7662612615948763
30.12,9.258149305269217,-5.029420593280313,7.17515733353195,1.837000423283238,-0.01877236927163914,0.6849267400813669
30.13,7.875261807956866,-2.479894482517289,7.557459376328729,-1.0916813352157109,-0.6941666714265506,-0.9344290910584938
30.14,5.757685980702403,-5.519676667392219,6.118893084758693,0.626030317340095,0.28395458437507703,0.11996753707704061
30.15,6.366223952304827,-2.179680291327962,8.006211541729199,1.8087429974344351,-2.012827237167505,-1.2630110015564466
30.16,2.7419424289031906,-1.092704443300855,4.895580988923049,-0.6853110993487814,-0.2757688193761314,0.09844779517133145
30.17,5.211346362259829,-5.706762360225154,6.19040714134869,1.0477833340869622,-1.024973018620702,1.129139722641889
30.18,3.46404182945777,-7.17446140160394,13.36097395077216,0.8924295188279644,-0.7732502597157499,-0.8827499914406814
30.19,6.044001756280517,-2.065391164169382,9.939091391604032,-0.2340220870446792,-0.6698693032380693,-0.7990841290581945
30.2,8.69096408255919,5.1645811295734365,10.01844088375122,0.4518189095553136,-0.7502781543857037,0.15841814731888024
30.21,5.173128299556163,-2.568543368598246,9.180032994376708,1.6773403986374626,0.2500379006979255,-1.8460140781752221
30.22,9.158766188021135,-0.042826878921366385,8.811858212605399,1.673951913127975,-1.0942193136462504,0.9898265237658598
30.23,4.145705671913635,-0.7197839709971334,8.822705451982861,0.6837272184925518,0.1125591716984965,-1.9284419279375402
30.24,4.1482339722135935,-5.634502226624034,6.585856927750845,0.15157558122024772,-1.3777818942450142,-0.35652665746433554
30.25,4.603348792657287,-1.7909715022601587,12.001776531515228,1.206320404686208,-1.6623833863851858,0.8604193865520164
30.26,6.655082407580401,-0.9431525074256861,7.95335986816112,1.335392386588579,-1.9159224882152266,0.6910394046864825
30.27,6.574877884234528,-0.31998226795298745,10.085909371003428,-0.5770122655486506,-0.6014470029440648,1.6348010011616723
30.28,7.162520305845868,-2.2409939148351428,6.920654409732936,-0.11878159261446586,1.183757609028586,1.1461875747567931
30.29,1.4078771725777282,-4.8263085688027365,11.476011674033984,0.347148565838571,0.5565597445888079,-0.20610015264573722
30.3,4.344983821842279,0.41669605961303446,5.548249372946927,1.8915797059725472,-0.2893310292837793,0.27878043780514117
30.31,3.54014853346804,-0.5139668367437327,8.874903768337244,2.2466096210997737,-0.12322202968468443,-0.5470864260334252
30.32,1.4547053639271637,4.1120512805135006,4.321696988928094,3.2761913043769466,0.2430696018879125,0.09651690111063152
30.33,4.116584359486367,-1.980467297941591,8.302169117065109,0.8049006222907256,-0.057716627676689,-1.0355064730284618
30.34,6.145663919429703,-1.5318042755130155,9.200641598641448,1.237695793796271,-0.42167486811255883,-0.466300649796788
30.35,2.765836730292124,3.3619426234343663,6.608283672490254,0.4356124960837122,0.6812652385988787,0.6886120691795393
30.36,7.789162759637701,-1.6390569431800732,7.466811828056507,-1.1064405196051486,0.5795758286615358,-0.24009088318098284
30.37,-1.280883428631693,-2.4901235172557907,3.892988139570147,-1.2620659816315278,1.336489446533896,2.632555180872674
30.38,8.000170227830633,-1.851850326160986,8.76738490918443,0.5439904053251674,-0.6436631106179979,0.9491549549374764
30.39,3.4375591217766663,1.8400630887286253,10.338742518101546,0.05320182060308265,0.058973377050130116,0.4030992519688395
30.4,10.536800342528029,-1.6624113758775796,3.8865419967488393,0.4971665785838444,-0.5103838378943278,-0.257668667867607
30.41,3.446008975798752,0.002678025870169306,4.887701610170378,0.27077940448396187,-0.03278048411579976,1.0929303009169113
30.42,-1.4446186671177124,2.1491664394262795,8.692883881640864,1.0279791232255242,1.34840576859662,-0.050205285316539436
30.43,3.382953293805972,-3.11092800014673,11.767386737753,0.8878347853962365,1.7666074637795846,-0.6876336187373042
30.44,4.250867482687075,-0.03926903298844442,7.716817114375788,-1.1046841021330462,2.2269469762528566,-0.7728908378451662
30.45,4.75708893134336,5.171379210172514,6.902150433886122,2.1552031305053165,-0.6007275168376252,-1.7664756733534959
30.46,5.925117035747132,2.0994533563711117,7.404486809848803,1.6476334206374699,0.3118303452283311,0.39531258391760393
30.47,5.703587255504176,-4.600513772745302,11.588450871530673,-1.5534730362584033,-1.7657315223318788,-0.9885609525013487
30.48,8.776203558364296,-0.9086449117315514,8.61959199752236,0.18203709159528847,1.3964042730634025,1.2503110668227757
30.49,11.731177680779147,5.1940154782256895,12.411386665822633,2.0012046828163594,-2.54952857037839,-0.07985540329571947
30.5,4.717808696521581,0.9166231870918881,10.582716136776261,-0.9189262234433704,-2.074345484839015,1.6055036195820578
30.51,7.61900412679649,0.5320353545444906,11.262676314670893,1.1415085307043285,-0.5270350027462178,-0.21643646149626194
30.52,9.940364415515896,1.2099993952493848,11.05843113415147,1.0832256244870613,-0.3378074724560083,-0.8008433363230458
30.53,3.909196688820166,-2.0975858377362524,8.149857328239412,0.6813016099175248,-0.2074311284842147,0.23466417436698736
30.54,-2.2735696482545986,3.9530961684024977,13.023151280336354,-0.3255065199483289,-0.863685253157993,-1.4479605852601736
30.55,5.633720067628285,4.22211849448823,10.808155580550734,1.4288996808561212,1.1749679146655945,-0.6217098640778139
30.56,5.280974213097436,0.7463537872873183,9.602114069985978,2.4813965259943864,-0.08893310917049746,0.23902897922724614
30.57,3.516645985626832,0.11140381551062162,11.456546260999959,0.8155652898050508,0.08859846463935017,-1.1121983015351486
30.58,1.6624789189771225,2.5652679743413747,10.366637262981778,1.1049824575092082,-0.691052695278804,0.44985037126382915
30.59,6.742464863837657,2.796237894891849,4.8560055202136745,1.2736656787776282,0.18503122081482434,-1.34303330256167
30.6,5.40369955966397,-1.4322591934374844,4.374253167865177,0.3308370826442212,2.033217593572714,0.7641847912627167
30.61,5.095944992229522,7.376558550189071,7.5852789484420295,0.007964850988957495,-0.027026097359570622,0.8892544728219496
30.62,4.245463447445681,2.3187442408728733,8.43753627802521,0.7255424904845951,-0.9575680348652331,-1.0415324881198191
30.63,7.299399382258464,6.057744909043215,9.76601004205122,-0.46224158893686285,0.036115792532291136,-0.5126971672037431
30.64,4.757054684400519,3.366126073292154,8.831648909703134,0.5984587055067834,-0.39127466699059926,-0.400621601207785
30.65,4.6699503199524965,3.9230961910142192,8.602782731881177,0.41233048272233563,-1.4027158008043241,0.46136228943408325
30.66,8.288542715758597,2.608284411247473,2.8991260321814103,1.0442029128946773,1.0694682481915887,-1.2384210441312091
30.67,4.0613083165755945,4.613220784644286,6.539634497628619,0.140166892545607,0.3590193132453679,0.7540085132187827
30.68,4.2990664206828715,5.308172854915121,11.899691418123362,-0.6925080327628825,-1.2077188305774134,-1.0947406593926898
30.69,4.367206274554208,2.2121087631057037,14.045004970854272,-1.0728823719025327,-1.1907309256302685,-0.5046929823253675
30.7,1.5773704377078261,1.835249835981443,7.0900609311633795,0.5098672735140485,-0.25961869143489513,-0.451774625847036
30.71,4.403421902119732,0.642368366162577,6.592497568385758,0.48555326287059647,1.7852347535970279,-0.20821687797283986
30.72,7.186901361673431,2.5798518199698033,13.71367370596689,1.7585504348904966,-0.9797663748138097,1.2522186533016033
30.73,6.798721851189327,-0.7710725059230947,6.317744907361074,-1.165851939118864,0.7588565106920189,-0.23384177284518604
30.74,3.1694533547697765,0.26030244426424565,9.27538696758001,0.6485010080826006,0.4449008535961573,0.6250872963992878
30.75,4.354503193434425,2.6925861414214296,8.355109459961785,0.8151173160925552,-2.345404787114541,0.34793600523900164
30.76,6.916610793187142,2.8117559856777694,8.763414754192533,0.4358348707821713,-0.3165444058938328,-0.38801672347507693
30.77,4.656558714317238,1.8638977247508763,8.785955302347721,2.558020784946995,-0.2500819311989311,-0.06156424926228676
30.78,5.408176081551555,3.957232131200906,9.030340043299047,0.987724929405819,2.6470934627180096,-1.0838211330847494
30.79,3.8601981701212136,6.838699978323517,6.012062368788946,1.0046499503701258,1.5767769629272315,-1.5366866125752086
30.8,5.9598867029995315,3.367105328554369,3.9624493994630656,1.1905677548240972,-0.4997878814201824,-0.059274665384391176
30.81,6.036764943441504,2.4220000587469395,7.657847803450842,0.2986440774096176,0.9255040797633485,0.9770167654935729
30.82,4.1941157535585685,-2.395238703556329,4.128754433445747,-1.2728546798395985,-1.503865882377215,-1.188499943554346
30.83,1.1729720673062802,1.1319778234502398,5.43152848943267,1.2042657849116813,0.10225508103566566,-1.3393131573883867
30.84,2.909906148461711,1.5735070377297875,9.957670104661261,-0.586247561910329,-0.510540346871465,0.5003831214079634
30.85,8.152069476376035,8.818298735920843,5.807198082312674,-1.622119504196331,-0.38034702115494856,0.74418869661355
30.86,10.691369508846634,-0.16537452231831828,6.460441626039401,-1.3273519818892558,3.010541352047643,-0.23134915540547113
30.87,1.9677411457422713,2.675668008066991,9.293305597824359,-0.1084048047123366,-1.8877076372480235,-1.359342361581246
30.88,1.6214951381296054,1.3528202704115446,9.876892714887173,0.7951889613526832,1.9236933879765765,-0.6721845299420561
30.89,1.4980546757535858,-1.7994848505986747,9.368136332623614,1.2329357973308939,2.893296525265185,-0.5317790440617322
30.9,0.31157699251339466,5.608474840556738,6.634195800245665,1.0337583539190824,0.051441411898056816,1.3293323102988548
30.91,4.613710497800262,0.2548435390559387,5.05822084627815,0.45702484532164744,-0.050677897447168385,-0.5510820935216211
30.92,3.7353284681513967,5.416772877803402,6.192869984220389,0.03747077831526796,-0.8474342357673301,1.2227380825170613
30.93,8.326819115563703,3.5681955864319517,10.832008213072777,1.3409224308901262,-1.1236053451375656,-0.45897458237532646
30.94,3.2198876695778798,3.0145876962329146,9.002560364172641,0.4743868846547925,-0.15322413314625155,0.7663432816200857
30.95,9.636357544593064,0.455860992211087,6.823479671240098,0.2575296073823136,-0.1369533461234796,-1.0082148631103458
30.96,7.06202693479563,4.365406147895605,-0.7007892622888603,-1.8332039453733118,0.7494358408226707,1.082128512291609
30.97,7.347149795626216,2.6097389871445213,7.1193337339342495,1.4607660715109223,-0.23334863317001603,-0.06492559017588106
30.98,6.107360936821787,2.1978595377942316,8.022585924878513,-1.9908243417373541,-1.8944839097919415,1.5680123421352783
30.99,8.298648809634098,4.188826514690239,8.33593469976215,0.42148382421285846,-0.026915829008430647,-0.2587599633627671
31.0,5.1400776899292975,1.1950863428229748,3.7088115043902095,-0.3387149580191137,0.4388491842967177,-1.1207838817300053
31.01,8.279186032011484,3.363183816349918,2.1750478761477883,0.6544237272571674,2.4177586292110442,1.7275395047832665
31.02,8.833566107142303,5.641277976322679,7.347607369604025,0.6381388976375073,0.9762771170874952,-0.547979349293244
31.03,3.9511767952713126,1.3791405149010263,5.503028446689138,0.9781507758669394,0.10331425671910033,0.2090291965034319
31.04,3.898002363501515,2.256707504003237,11.51841960777475,0.7111681280724877,0.7292785504225064,-0.06341083834243508
31.05,3.822340719842267,3.1704492670161444,2.6698018583347327,1.1753038812408114,0.716962149528796,-0.6190941653013583
31.06,8.156707053859765,-0.38568087535914186,8.51015702613844,-1.3726037139088698,-0.4529538133763229,0.7707771750254095
31.07,1.1941717947030583,3.307419986458583,6.294290603343614,-1.201091423491734,2.365789972430653,-1.6519805651002903
31.08,3.11813357776494,3.2069842432188413,6.593975287329318,1.0321446475666383,1.295667146250919,-0.15727537267009026
31.09,1.7590439604229333,2.0949680591298456,9.317126757509893,1.210754818405851,1.1392350143858827,-1.8853850651920692
31.1,1.894674933381015,7.861832988333448,7.319332966867116,-0.3042810137509723,1.0953903132229221,-0.6849997936094407
31.11,1.4308678707082123,8.871956302035706,4.971617854459124,-2.965106454742386,-0.08741853425110657,-0.5385515108127865
31.12,3.4000638518892043,0.9210208783392195,5.725860136192817,0.442429466948115,-0.3899701808262229,0.8517627828545984
31.13,-2.817622028285408,4.125628934271639,8.66064228002395,1.0434444780531769,-0.029555541365030913,0.024741301051573756
31.14,2.233831909460383,1.338880220748043,9.485692986487507,-1.1454725204064313,0.6693640973116232,-0.001105549634754413
31.15,4.31089562160224,4.9291951616082,10.111805673577043,0.05062048875465064,0.3453758519308017,0.2385318708982434
31.16,2.51858297595572,4.274194109897064,5.823960511305869,-0.4276292848009202,1.0073773998536735,-0.056299529339576354
31.17,3.525499740614919,4.06541280486897,8.00931297555123,0.12457151141190953,0.5240826209291275,0.3549524322153903
31.18,8.420284191730447,1.1297864610242163,9.356676877625034,-1.1692992319398223,1.211693733514923,-1.0200767310782357
31.19,0.5996533715741146,5.069850055604501,12.381520664902375,0.43382060473483375,-0.2376897316197205,0.2826276743153128
31.2,6.07572609250986,3.6594926908109238,10.65899139883104,-0.10726804282604854,1.5958622366903756,-0.6063365125395392
31.21,4.392044978046511,0.933850465516417,8.957275166544294,0.9283039584771471,2.1819410692324293,-0.41627937836155643
31.22,2.2717100018532643,1.7136318078138246,6.7517244963219065,-1.8827077324458807,-0.7461173528503189,-1.1371526285546105
31.23,4.672166563466717,2.120161173301295,5.815853410991539,-1.179962479628786,1.429202273364926,1.526110914130736
31.24,5.513030714972853,4.371839827782374,7.362939590109584,-1.4739862780157795,0.9474943570909306,0.33034803177261535
31.25,-0.3359443074404367,8.24872628915925,3.1072473798519695,-0.7723804777557797,1.0044609789013055,-0.30335679085777223
31.26,4.248743588758374,-1.289446333289046,10.362977125677348,-0.11748745867742005,0.8737101997550655,0.4192753303153607
31.27,6.435028701458794,4.005251746087103,7.450339562247392,-0.48256922586615775,0.4832078024766945,0.11972365017721462
31.28,-2.958935616397039,2.2894310806011458,8.494039934474499,-0.44036105602550346,0.17291487083424428,-0.4614339784456485
31.29,4.858999067558756,3.293872139778137,6.540196199876473,-0.815375199238605,-1.147032786566731,-0.825298424895956
31.3,2.400202655188293,8.373037667021597,13.368196065044382,1.215343395779059,-0.39149968904677424,0.9000752907495171
31.31,0.41019199232091585,1.9041413194799346,8.092735964787249,0.03685375366428434,0.08033161298757985,-0.4428628169459844
31.32,2.409683870753717,3.2808172823145783,4.606967929735447,-0.35833932649639094,0.16294031628236372,-0.42755753367477733
31.33,7.322591964967728,3.3684511475146457,9.024358727503085,-1.1138632169797043,2.6431876283758333,0.9460152663178113
31.34,1.9668799811332598,0.052558258410728254,7.73780386416531,0.7801004395540312,1.3122431209004837,-0.5761617440299476
31.35,6.2037169524447355,5.50593120636603,7.751407278515963,0.5459416041878858,1.1784199362751402,1.00430461482026
31.36,3.1458936052695945,1.684555008213656,4.631272479315948,-0.8539033506168199,1.1110367933874201,0.0042204155310864855
31.37,-2.3561702647991343,3.6725763023538587,7.778277894505012,-0.9413851016117412,1.0675629521005865,0.059485276159409725
31.38,-2.352160171573131,5.238312898400277,10.304743957281618,-0.5061798323316109,0.7271584573219851,0.18979903225971195
31.39,2.636845337456512,5.86176845264259,6.483994813978374,2.2783972475971632,0.07156028218167992,-2.25750611482356
31.4,5.975142292236627,7.488270287593698,8.755703783959957,0.5586291711107648,1.8205532986594646,-0.9489530020502718
31.41,1.087226397494901,-0.19901348834305832,7.7553188215932405,-0.8221750325134107,3.5523070197228277,1.0949179390621067
31.42,5.764358261619334,4.414926141078214,9.247120710733736,0.8732014998692157,2.3440284543390724,0.2506554439612302
31.43,3.578431136112888,4.202169430839434,9.778917308120349,-0.0010485235799940207,1.7633732293647093,-0.8972546554414322
31.44,-1.713223847217169,5.69181657880686,8.060927054892646,1.0132858327275494,1.7566141086916476,0.07306070181059304
31.45,-1.5794880422150328,3.34857157836682,7.755221251851836,-0.7792222503716119,0.6591100666629728,0.7138156351138291
31.46,-0.7897481104179302,3.6880000956278938,12.716204227154495,-2.5613053700229593,-0.8269550487242989,0.3233050869643695
31.47,-0.5178975819151828,-1.4452870064515242,9.576237901273648,-1.9428887330366669,0.9096244197257891,0.5642941683369952
31.48,3.1373527076066097,1.762431109385,0.9085036422658828,-0.43984715708264277,0.12229188313053985,-1.3421186740434732
31.49,1.0137274118568564,2.9132768104051032,12.003131573645978,-0.8046316553281545,-0.17606726115143023,-1.492448857538192
31.5,-4.99911540303592,3.7513510297605697,6.965045332252662,-0.7707620883691084,1.871276038113474,0.21563343594633266
31.51,1.9217888025269545,1.384009259466986,5.590201627359786,0.1583160061974377,1.4894138335923934,-0.2684067875128077
31.52,-0.8647020167495396,3.519594615019477,5.352962307769308,0.2926428204261011,1.3385875862560705,-0.8076581704275537
31.53,-0.03943436342842288,6.815870124659531,8.634954776100164,-0.9869763543765727,0.828590319732422,-1.9032600398484827
31.54,0.039053437183429685,4.573440562055176,5.921623324658164,-1.778778190129465,1.8557004089215896,-0.6323607365845507
31.55,-0.4775990491983795,3.1402063544987437,12.786518036246646,-0.6799281227857771,0.09198844657723115,1.206539849098191
31.56,0.04165039124187975,4.504786859607563,8.91720421759904,-0.1455238795378242,0.7573211098601003,-0.7003303861713928
31.57,-0.2725440903023044,5.374222525556391,9.197053450064065,-1.2983867839233842,1.7342674536839544,-0.8517689546885986
31.58,1.0834623050038037,2.287685407511605,13.246555146231763,0.9092648509485223,-0.20058330706824146,0.39465609937802665
31.59,4.0940160302059505,0.39543737207031615,9.552493601380045,-0.4335490258599082,0.20197199223836282,2.385843028047643
31.6,-3.0025846812598163,3.6488800336053835,5.12614417949608,-0.6905844252113069,-0.4206412756601665,0.4011676935871448
31.61,-2.853558475537228,0.7312685672963153,9.395586816287457,-1.9199222398673559,1.6535803085407204,-0.26022326276621593
31.62,4.457233917312051,2.00114171936369,9.244243361474096,-1.496462320878015,-0.6637108422692652,-1.015730938134264
31.63,-0.20337767214392566,5.809048799550228,10.518088369565366,0.2748074558102555,1.6432910315447096,-0.5572308625154367
31.64,1.4375725378607123,3.189114847966474,12.358714509362898,-1.8284270394651054,0.2919371124943362,0.9666310272214685
31.65,-0.7937670745777179,2.0495880403094273,5.446758549918269,-1.9088899936850487,-1.0272860972091087,-0.7335145848357207
31.66,-3.8782654296092596,0.16528379566353246,8.59163158684,-2.3242959629166817,1.2627629277655568,-1.0915420091059562
31.67,0.7765910476311895,2.340059809823038,5.833196736129075,-1.5583778033837998,-0.24042764989515686,0.12194931333440152
31.68,0.8318697662177326,-0.3914193215267976,8.531028181325407,-1.280849012600009,3.147236592978669,0.8421201646876573
31.69,-1.7547586454723507,4.286896662444554,7.940206990326406,0.3500917838138141,1.1654686101312333,0.4237681747598338
31.7,-1.8342393376398831,9.94693812444326,6.556841088594561,0.4743290415506004,2.2915277625690633,1.409017896020312
31.71,3.3689190227623755,-2.634620264922287,5.378224158348939,-0.7507006610059763,0.761692928212258,0.045962462827749156
31.72,1.2989532147988552,0.1844354414359728,13.133246665943261,-1.0598817532069442,2.494835270906207,-1.6138550200295763
31.73,-7.000661158561153,-0.2151754987917318,11.177921897635295,-1.1100350405704362,2.2575360345330004,0.6081663180784671
31.74,-1.5316146470532126,1.112617347246448,15.19127485800839,-1.8832999557542172,0.6515456089365579,1.2131086256804178
31.75,-2.676964543959448,-4.083228451004893,11.517348706414321,-2.457346557765458,-0.1977227383755823,1.9101920416060811
31.76,-0.8917574407595172,-2.396384364639263,6.483977615991764,0.021270665151509327,-0.5227124800658992,0.37179343989286096
31.77,4.047398207121322,-1.2708379318025629,6.8842165434891385,-4.199296833471049,-1.2067907815190315,-0.7072391345908922
31.78,-6.781699818299373,8.263206862076453,12.211491743773685,-1.1352178322087603,1.1001691027592477,-1.5514547974558264
31.79,-0.26015927583477305,3.6225836766243034,9.633085448696312,-0.9298640448861049,1.5589819761538928,0.6344890532546259
31.8,-0.5757189479994413,-0.030434596985621676,7.761978157115866,-0.39920727927623273,1.3032482364315952,0.24982431108012987
31.81,-0.8848437662715132,2.2342999510930337,10.930692741658275,-1.3220403295771543,3.521791401661,-1.5824871892700811
31.82,-2.0192412331831067,0.9164180678318998,10.219125022813339,-0.8355910384318932,0.2951066797894675,0.04481249722886811
31.83,-0.7169156319489912,2.6310161723060927,8.923916153455687,0.38447252876813753,2.2831099172598672,0.4149493548219877
31.84,-5.157551972268774,-0.15454981510676047,11.697800724365718,-0.7289954242914145,0.6352351555375917,2.7444924227798655
31.85,-1.8349382537246233,-3.0011966745378533,8.700380112372818,-1.0740384922634363,-0.029620188313545872,1.4497320196516648
31.86,1.7855226173022063,-1.7867007872860305,12.161204944097435,-2.5808600279741656,1.4260514581224162,0.29461299178625594
31.87,-2.684048534734691,1.660642624094644,8.553597783891389,-2.231698240703288,1.021716110160234,-0.3860648383325387
31.88,-0.9017938872333335,-0.3819612894307207,12.441428711500413,-0.23424161063049398,0.8408882398279176,1.2133429719845028
31.89,-4.677842685568888,1.161171406258894,12.671229821857548,-1.7178466772885845,-0.1728153919698383,-1.0042465489435086
31.9,-3.021561481507086,-4.073920616518938,12.131408547561858,-1.0875129970739335,4.184190053046562,-0.4569540861483611
31.91,-3.879545982165225,1.0935277326270236,7.898684638574982,-0.9160503438491887,2.899424000453851,-0.49332179899379613
31.92,3.436766545826307,1.1821695509619046,7.703244771466146,-0.6669532838182336,2.534981613453497,0.5571143244256458
31.93,-1.3553086544210275,1.4125100590404618,9.105904816245122,-3.1587520045786626,0.5933053043762562,-0.044901315021532336
31.94,-1.4737058916426142,-0.46151068595786915,10.20491589736592,-0.6062312812996078,0.8202794634527378,-0.4884832352483619
31.95,-0.9684616941849509,-1.1064788369291874,10.74684121533414,-1.1031346474618844,2.308531809779277,0.06880610902108605
31.96,-5.586778900059725,-2.76219506555183,9.41723464966896,-0.7182065473505663,2.3706722534027316,-2.1594980378074524
31.97,-3.3164045932444166,-0.6232752249510013,10.584885220796748,-1.5792497150943707,0.6460165600753771,0.5839955251549479
31.98,-2.6728826416995863,-3.2685120312360305,16.76770327944265,0.6624831127474202,1.1988878064998159,0.4393102507127353
31.99,0.5715093239330504,3.6208717095238945,8.347830630180777,0.014789956643897595,3.2647738066973724,1.7469929980117318
32.0,-5.660519771313945,-5.177837132010301,11.64102935679147,-1.2559814769991196,1.300700203866312,-1.793922146043854
32.01,-3.258473633648665,-1.4158945408985633,9.776194285464477,1.3069722772731744,-0.4143778366779336,2.4980982125584434
32.02,-3.5520404443635614,-0.3419617678025878,11.074209544630286,1.0557112480084794,-0.7140874517031449,0.6479486197068883
32.03,-3.0000485125618477,4.950136067261958,9.165754016558992,-1.4866622098047202,1.3979225903446921,1.4814617628551425
32.04,-8.980526533944875,-2.684948519909035,4.935258225647569,-2.905214714696971,1.8878169799180533,0.9243579307555129
32.05,-3.9292966762732413,1.4084609525739482,11.303107288817086,-0.03792060887822313,0.7307625783549537,0.01381158075847072
32.06,-5.598051443921389,5.424160279672707,11.20326314677811,-1.0184612151079215,0.7412240046279706,-0.6820379619881694
32.07,-4.282620285010062,2.0937726306119475,8.864019308594075,-1.268290394791356,-0.49516192126710884,1.0638577428274727
32.08,-4.361991036677811,-2.3025424297968833,12.990069788102087,-0.8376398996231004,-0.6384377415220387,0.6025961933920537
32.09,1.0831188550869708,-2.1013006110140067,8.617188784166405,-0.3137554127898017,2.4244659986791417,0.20552624126302999
32.1,-0.9020088090132736,-2.8921256657172796,7.223789739936805,1.941278803782269,-0.0013904437991015817,-1.3177679283491537
32.11,-1.2760500668717873,-1.7553063074475457,6.122712107327106,-0.24879779635306137,0.1420634703723593,0.27277788560140537
32.12,-2.177923025692613,-2.240312624402613,8.477603051567172,0.6326823173895261,0.7764355808804075,-1.051133825992392
32.13,-3.9108262567187486,-1.4447127595812042,11.796516822902987,-1.899795805574045,0.8862475550882092,-0.3172025410872096
32.14,-0.8779430168665501,0.3593217181414854,9.079494117680193,-1.2165792937872064,1.0990257025722825,-1.1087634717583132
32.15,-2.029217944950253,-2.8906313389199543,9.234761749879445,0.0032315770789429488,1.58306062331543,-2.129232429442836
32.16,-6.744100153831136,-6.319701959956204,7.495190605668869,-1.5497516765372128,-0.004618856513600944,0.037124531293392646
32.17,-5.09444812946032,-6.862127956983884,12.38972334838496,-1.8088225366165518,1.1420684134171777,0.4487680735636574
32.18,-0.6558733855832664,1.3219811576574934,6.777752692739166,0.11775332719773535,2.5334731893790456,-0.9684076401499359
32.19,-3.209686406374132,-3.0469546707346624,4.79641853808535,-1.4539623074991703,-0.30304820544794986,0.6985423101478644
32.2,-7.672738866448979,1.8848109589410105,10.413664980527344,0.4423411770375538,-0.014661846751154783,2.827612565914468
32.21,-8.998167007475109,-1.4743369064709393,7.095922426810378,-2.3598182959045366,2.8105994219031114,0.23620550682663766
32.22,-5.801008456931201,-3.118972029922217,9.664808166915456,-0.22209158362963166,1.5757216895514805,0.11755608923711666
32.23,-3.0965522860194445,-1.571676295927239,9.659024718490251,0.7370979325882019,1.5049713049170594,-0.15958516708085158
32.24,-4.935378392210403,-3.4747771539989984,5.234413509740898,-1.782534738350541,1.8865108407084903,-0.348691129826208
32.25,-4.490100479506865,-2.237026921751002,8.122561481662792,-1.0729579987287754,2.6595472602287646,0.1852306413347438
32.26,-2.6424349803153175,-3.416896423749714,12.570411902325256,-1.6262540941519985,0.20509243464831795,0.8131339721592062
32.27,-7.2271647289053025,-0.29680673968681326,7.730703756963928,-0.4171627199111715,0.2909866274619057,1.8250964173618092
32.28,-8.379455200156883,-1.6861756617447978,16.20470897124149,0.37340729902595504,0.16488303021182943,-0.28208932572155154
32.29,-2.794813226382943,1.400511928133418,10.011845746088426,-0.8995039023350686,-0.36356170246523667,-1.2299024368751088
32.3,-2.1172310432604737,-7.348182950851612,5.970488084038566,-0.04230920766950241,1.912639489490778,0.5395365442159366
32.31,-11.322181747019016,-1.5128397278579127,4.431167038225299,-0.7720459052106945,-0.8426723777463208,-1.0112041086149883
32.32,-2.299214164478069,-2.2429543552377638,9.032956650068929,-1.5773100926799062,-0.0921579855672765,-1.1851186854462925
32.33,-2.573193645028427,-1.4861857210342575,5.6657208966499235,0.1455682579931741,-0.7017488659027884,0.9042807935090527
32.34,-3.6858493376141834,0.7879025437283764,5.253738637764842,-0.23133605610727687,1.3310563684840468,-0.6259432772905115
32.35,-5.018346687207783,-3.3842978760259093,13.230995224103802,-0.30178393937078757,0.3115177281290008,0.4478557083644787
32.36,-1.0645906608930455,-6.32441875295864,10.407312022584314,0.5323651289088208,-0.9291306810415102,1.207263938741995
32.37,2.978146035171936,-1.9505042772750882,5.111081776537338,-0.6366042846286013,1.2040075038156368,0.6856364265697739
32.38,-8.37203285833654,-1.079678315643001,6.579939131550546,0.3981869089932143,-0.5519370654572393,-1.113218220555594
32.39,-6.880698869869356,-2.3009863668523005,6.153892289737737,-3.3918370995032623,0.9282309894293785,0.0729500844858503
32.4,-2.844458666951739,-4.207427450688032,8.613958577384956,0.6039017451078973,-0.8603076250293634,1.7137724284548144
32.41,-9.256250375378247,-0.4067176214313064,8.294782898907854,2.2775269478388642,0.29605879819800585,-1.648948614132971
32.42,0.3273164345260309,-5.192932925889616,10.732841729709307,-0.5529317236998212,-0.15913337356193796,0.03884910348785457
32.43,-5.8915451060173485,-2.9728959746910784,6.79902822000354,0.7794020203923697,0.9316112477201354,1.782508026507786
32.44,-7.294166686799649,-3.4667568908948074,5.479073284998397,-0.7603656119660613,0.13299437819726762,-1.0298917459695431
32.45,-2.123439241287879,-1.9218430479399946,3.3130339607693493,0.01240331169956567,-0.9650117763335971,0.8670913824558223
32.46,-6.059037996298699,-2.0683637720359505,4.91526452237998,-0.20539817541363797,1.5577430230612606,1.1033216503759133
32.47,-4.782905304233009,-1.4794635941317862,9.05498564374644,1.2907882642348627,0.012007293664292457,-1.1229471669478168
32.48,-3.1373188439722544,-2.939397935234622,6.066665902641277,-1.1029844096721768,2.074699321731207,0.5145352006523737
32.49,-6.642514882313649,1.440934842111652,6.307410593915931,0.9170841141501778,2.009208431675674,0.15662954484429814
32.5,-5.826432614589033,-3.6353511376677035,12.075486176132209,0.21950018430337348,0.4041364644733414,-0.43074180515251365
32.51,-4.476287444067991,-2.4558638570417433,9.0898634531683,-1.2423494847953993,-0.731309653460581,-0.5666145208155109
32.52,-4.444298265752344,-6.532923172116928,9.547089059539095,-1.1111801350133843,-0.735745729028353,0.5478037948770337
32.53,-3.9626242202824686,-2.0067503164580947,8.847183076487006,0.9347852759132964,0.30374151425707696,0.27452351888119797
32.54,-4.921177218569449,-2.7151601001146446,6.637513887396868,0.7757704968972317,-1.0310506369776653,-0.5478506281263922
32.55,-3.54723716058335,-3.2275489103646433,4.820724936478012,-0.22781293962034088,2.132992506406875,-2.478181167900659
32.56,-2.3824690953307677,-4.463643888443416,4.1002738587534155,0.6221489820521104,-1.3879037094748237,-0.5663584733189682
32.57,-0.8234085279690229,-0.1154034230932468,9.225662724815978,-0.5274236909019734,0.7978510652824176,0.6420758460824018
32.58,0.4279897797511456,-0.6419527145574029,6.779140671688895,-0.6873392726895948,-0.6837553507422844,0.01732208563060731
32.59,-1.7028291523843366,2.344130887474874,9.988195503967647,0.2927098155878728,-0.4847010451572068,-0.003073847008118802
32.6,-0.5777186369965399,-4.2755901051196945,9.210970446673594,-0.9679483509767032,-0.14125676358674094,1.0495139317555842
32.61,-4.061655862692117,-4.8314564388180425,7.005938851067628,0.6970185939979107,-1.567643966028525,-0.056134233925794995
32.62,-9.385999593170627,-4.206704174493715,10.004126874288794,1.7049770276586522,0.7118639164107253,-0.9409098237606116
32.63,-9.348099800584839,-6.2483665204984415,10.563581526492541,0.6012505570920751,-1.7401474955916427,1.1093344997956078
32.64,-7.844253347154504,0.8043808193676942,12.53160785923567,1.3959319341748297,-0.31706056826472756,0.5104317731656198
32.65,-6.977703484601038,-5.408575438755456,11.965081426914052,-0.23111835705758932,-0.9046687149708446,-1.0297638282518842
32.66,-3.1804909252528026,-5.5734023939772666,5.172033897536624,-0.6746566366374667,1.1565219500016002,-0.8856467835809894
32.67,-4.143423741795811,-4.0013183631889655,9.89257009803638,0.2341350902918241,0.19330508023231358,-1.292123491964771
