t,ax,ay,az,wx,wy,wz
1.04,-0.03556316992391439,-0.25888521467661213,9.964666822376145,-0.023276561008417667,-0.010902825261137656,0.0007546358187516318
1.05,0.07970865076834134,-0.10580952295340956,10.423171107055705,-0.0003563411611224495,0.01098910208748469,0.007424864304611238
1.06,-0.15249358595251314,-0.018532867161728982,10.595005884751568,-0.02981372724560971,-0.003300833606572775,0.010796711988727843
1.07,-0.16872168883437208,-0.02984457914751898,10.927467931450801,-0.01082760950323822,-0.012613147082350392,0.02591453773951781
1.08,-0.06981841807625094,-0.04152047307508975,10.92192893386971,-0.027697678473047476,-0.002183254287135115,-0.0262391276205949
1.09,-0.31797041160982975,0.1106078893857025,10.466812418652797,-0.03209096139752198,-0.005260741189376891,0.02290304606359062
1.1,-0.2718189732933384,-0.3111739487778078,10.120371620164633,0.0034738539233953197,-0.020323353546866593,0.009728076777609136
1.11,0.0734165816157805,-0.14498696678347492,10.79716874046233,-0.016124988726393525,-0.02352775807109751,0.003628678156741937
1.12,-0.05484370679593395,0.38551254508139493,10.537220496387695,-0.006817450434567603,-0.004411763965182527,0.01924753942900866
1.13,-0.15688210313098744,0.01777546382878612,10.360326507330994,-0.0027519652112473316,-0.01789193107811602,-0.007545694079772393
1.1400000000000001,0.08134960968791582,-0.19385385695824212,10.692341189755044,-0.018234370906349308,-0.028330962583307032,-0.014852850776069607
1.15,-0.04112554452529061,0.021309332581199332,10.156302664963397,-0.019258222796300763,-0.033666706913202,0.01788049259431362
1.16,0.1628993369970543,0.2807763901859374,10.17425831433896,0.010093165149552585,-0.002630477169924793,-0.007350885117357696
1.17,0.010251770927408081,-0.03567212465783649,10.418234563445282,-0.025743174470077845,-0.004295535325095217,0.010840526529330367
1.18,0.06462353361800716,-0.11671229470206884,10.335945673675415,0.02110042778490211,-0.0027127042302213383,-0.002021872149152917
1.19,0.2271610554069213,0.15862001659171462,9.979148031646265,-0.0007506080163376719,0.006196267225223484,0.013166922251482121
1.2,-0.2613641830663804,-0.05158219865906022,9.741818373969377,-0.024057305024397062,0.020211831202970192,0.0014686265253372331
1.21,0.17827168725955866,-0.32868608665472276,10.213038607261291,0.021113540202473528,-0.040496689833102784,0.025149893393424518
1.22,-0.19331097594907276,-0.1189811802210691,9.872069820029804,-0.008101659781321375,0.009459560358051377,-0.001447924328549252
1.23,0.0851475772687569,-0.20755486053792355,10.159464428663357,0.006887539176261151,0.01302012126306922,-0.007016873075639321
1.24,0.19105272717076838,0.2574984379636785,10.207178495209229,0.014993268105313921,0.01100912131346894,0.018609021154573375
1.25,0.04001949346689505,0.1244458954368931,9.874455891331317,-0.016191947545700223,-0.019443361833946002,-0.0010480910274880957
1.26,-0.2084640203821823,-0.03030580896435652,10.186239068213117,-0.02220274929849538,-0.021879329842492145,0.028306487811704938
1.27,0.15261355538894153,-0.24853728917305087,9.99361884702964,-0.0028904452690107175,0.044892196521106216,0.008578018617942931
1.28,-0.2791776942487248,0.0017447111973382644,10.018797218586817,-0.004502497910946718,-0.011414375673559317,0.01944548389802799
1.29,-0.05039730308076283,0.07092855147601172,9.988975715799901,-0.004592880275124883,-0.0014864747916266687,0.013993309014691303
1.3,0.10356491650024899,0.45848275659914334,10.015871468465674,0.005379455112223733,-0.008501564878905903,-0.022663832747224177
1.31,-0.2778622544317207,-0.19169053595563604,10.206396931897848,-0.019476474161555665,0.020095610764394905,0.015018074298817432
1.32,-0.16256691552422117,0.14693000310779494,10.149084317920238,-0.02709929938163249,-0.00983456511457501,0.0006694251503775183
1.33,0.12968248528605852,0.2725978801018007,9.919210514418749,5.578517634185809e-06,0.015465293878281744,-0.010217874236241549
1.34,-0.048179718486637685,0.03202286260045543,9.769599576131023,0.018494284784110582,-0.016946342106505894,-0.028300152465664596
1.35,0.01384345507315401,0.20665772203320384,9.906960176308683,-0.019170879866692907,-0.002790209333267639,-0.021956911653593862
1.36,0.014856495095301204,0.22243187852312693,9.629862681148182,-0.03712703778294922,0.022362417979296674,0.006754591516805695
1.37,0.12434381028054374,0.10167049493607083,9.814832406266488,0.02036533501369996,-0.03141696124491236,0.008415420074784088
1.38,-0.2815409231713541,-0.10475169153583887,9.716612936643624,-0.0026984743667954297,0.003308277918378195,0.02708261574395926
1.3900000000000001,-0.061768995492273424,-0.12297037636707829,9.893653913706304,-0.016737247406513844,-0.018884791152809128,8.29873798181803e-05
1.4,0.19613607766386934,-0.14434950823905404,9.943607421710524,-0.008738209177539718,0.0065229554392646424,0.027723257451230082
1.4100000000000001,0.09268971261306068,-0.02413185050869967,9.852139796035893,-0.01669796342839179,-0.002372507313578722,-0.04293213490534437
1.42,0.16744314035750885,0.02878632129951923,10.048447013543482,0.0010003252522602713,-0.02599586424407184,-0.016277771335158245
1.4300000000000002,0.1554361044695979,-0.033290805099053994,9.956067583325671,0.00346068716139357,-0.01547837226018376,0.005146035383665483
1.44,-0.021659807128414872,-0.11398282187026576,9.853985759652975,-0.02107580567877382,0.01853805136547841,0.019389217882381744
1.45,0.12403282678443263,0.04258438705946469,10.21275682736216,0.03037679297411602,-0.017841974004914843,0.005064145032171379
1.46,0.178842600596576,-0.24840231841243096,10.033373712878456,0.006059222146304133,-0.01917232537940137,0.004170918699814238
1.47,0.10897356422351098,0.09632033931747383,9.706674621517509,0.01631313270757455,-0.015198573689647379,0.011582818722177878
1.48,-0.0672027468520549,-0.03111982906514353,9.99186107994925,-0.015023688869451967,0.01903406981616875,-0.02350974029586827
1.49,-0.12238602770928769,0.12430743277307837,9.38574181956851,-0.021206297028538285,0.033720958825514014,0.009648899158860877
1.5,-0.17811316638032984,0.17453323610785532,9.65867676512695,0.01546298790584355,0.03206560674019673,0.01978014958086826
1.51,-0.07491965755464135,-0.160336437731837,9.67297930459865,0.010592547100308887,-0.015148954541878912,0.007769586445055328
1.52,-0.1065663752466883,0.10088103581317484,9.895165236131136,0.01302786663863157,-0.007271441174536746,-0.045010922070019846
1.53,-0.0636029115657054,0.16449317835103436,9.84925192972074,-0.0178838563154558,-0.04395233189107365,0.03430296276287799
1.54,0.18691663825656904,-0.17934979487126027,9.695742955271928,0.0001279424980749128,-0.02532539538038048,-0.029620458275993616
1.55,-0.000983200994418653,0.3162727572978778,9.823752112676138,0.017866793299513635,0.0013738753225663613,-0.001167976742995498
1.56,-0.2576996592513922,0.2312578075600403,9.815598439629866,-0.026879569078217345,0.0037987004201427716,0.005805372538863441
1.57,-0.037751342089006504,-0.13627056925746572,9.775346774961665,-0.03506250337887418,-0.005018177247888642,0.013392400324680215
1.58,0.10659845199585706,-0.12227196486026855,9.319947109009215,-0.0013410195762293732,-0.049563070739870825,-0.008230701880909465
1.59,-0.00887632730093535,0.024525263241652023,9.928235961035325,0.036872205651352595,-0.00796618380016178,0.015090222215375298
1.6,0.07170842152229016,-0.03209500909096878,9.89963298768095,0.04718316915219049,0.014003726465254825,-0.03574294475644514
1.6099999999999999,0.1454509412313061,-0.12883289783054072,10.008910018208734,-0.038679552521243506,-0.008808037862547318,0.01809662357453974
1.62,0.01920567044278659,0.1834863570534941,9.758639437810357,0.01132445107922532,0.01521421554331105,0.007966110562136464
1.63,-0.1342354622476095,0.13354571851306699,9.823830703174007,0.004857840411714175,-0.0025352152704432728,-0.027646197381008007
1.6400000000000001,0.15537299835348056,0.14094401993220196,9.47295421402004,0.037605719523193575,-0.03335165216995083,0.012151520866946978
1.65,-0.05204013508508342,0.1560723827321073,9.32658048291185,-0.011838902007281084,0.009946554800378822,8.05004920691937e-06
1.6600000000000001,0.019124310727387104,-0.15085998196017486,9.733438421376503,-0.021387652720499344,0.008335938260748655,0.01926196024379416
1.67,-0.13867835044732021,0.1364623353387082,9.531958406520332,0.0031064290117924376,-0.06786295604926339,0.040042446335930015
1.6800000000000002,0.030551709234711375,0.07674094018634034,9.486115968136673,0.0027189354809473367,-0.004919230020053139,0.010442761831653342
1.69,-0.29611542850659145,-0.014909918535270674,9.891170979797097,-0.03191973539837713,-0.006516051970520385,0.0311899418925397
1.7000000000000002,0.007117805887139479,0.04944730468022785,9.855961212070822,-0.008619056290655335,-0.012914556590989024,0.026373384705677985
1.71,0.19427244885405512,0.01772478976855312,9.844726518389638,0.016078658447475393,0.010901421251797848,-0.007359362693979387
1.7200000000000002,0.034669045122805844,0.2019461948413663,9.929698929543466,0.01260995076475755,-0.03353657806821948,-0.0319523614234459
1.73,-0.09208336839018715,0.39340076441929955,9.847499345255748,-0.01831949320703117,-0.005393730126820928,-0.0030335193777852147
1.74,0.16172209599480922,0.2201291706126699,9.80919402182823,-0.01694414450937234,-0.021781613549404933,-0.018411397608838233
1.75,0.12452516191479139,-0.05114539617424609,9.508160095757251,-0.039171493113691266,-0.006661179233959184,-0.019719434007959884
1.76,0.07895850915170073,-0.07467524461972179,9.78592474487494,0.005443459396510165,-0.008062299790486597,0.008709977846264587
1.77,-0.2528569858237237,-0.0936155635254868,9.709522281138355,0.007837137405361697,0.010464475910669235,-0.002351881077666167
1.78,-0.2998514398081897,0.26037197458749767,10.217424816271098,-0.0325811945944835,7.40540611623235e-05,-0.00968753584142164
1.79,0.009930700351254186,-0.1193023885737913,10.056499572753614,0.003946800273275566,-0.00048052957274719233,0.010595231783123252
1.8,-0.10615389285184688,-0.05050085514025662,10.117231513763626,0.023310317721187263,0.03224223334328343,-0.003273000987570597
1.81,-0.24914959156396058,0.34690384931351415,9.691168159620057,0.0015931142017628188,-0.00013764933171763057,0.010604486741610141
1.82,0.10236952769258092,-0.13097974401379772,9.652746428006122,-0.0025392053770121213,-0.01624407898613937,-0.025855764958225304
1.83,-0.11751362850090451,0.044628362160941536,9.895267469884537,0.005936581398324657,0.02074266708054522,0.008134571670036292
1.84,0.0740696988307967,0.2851828773561801,9.734320996625797,-0.034264429325384906,-0.01936063833934203,0.014148126435658473
1.85,0.11794478951039576,-0.049315145263980675,9.649970545507921,0.00841354265337733,0.01961659704706792,0.0018331087294412472
1.86,0.15875958442157792,0.1180938207550421,9.975001217095215,0.02154099987792468,-0.0036386004128067828,-0.009263787630288194
1.87,-0.025990354036410056,0.1355263446886286,9.393637085290457,-0.0171039756138389,-0.008319774732462554,0.022849331836667812
1.88,-0.13656594400625502,0.030243136602533718,9.852914719437422,0.02963892579863464,-0.011842434853077857,-0.021342813406709602
1.8900000000000001,-0.08181664936520375,-0.07737271681830026,9.837776216766944,0.04161205234279495,-0.005628075334273776,-0.009234742722307086
1.9,0.213341354932579,-0.1703431170030503,10.009072873583309,-0.00451170529881053,0.026696976398672047,-0.008846222289932636
1.9100000000000001,0.22389097123419197,0.07598158772734848,9.779773238956038,0.02310250861725697,-0.006715060449130501,-0.004681394282595715
1.92,-0.0715414296980405,-0.19222698863147558,9.967465476048714,0.014172273596121467,-0.00625606081148128,-0.025016935576889682
1.9300000000000002,0.04097288251025647,-0.20830577941011733,10.113066257780394,-0.034527966968326405,-0.007946548464723053,-0.028467421014095204
1.94,-0.0815341241806583,-0.08582015766529127,9.842571747011975,0.0023342796352878474,0.04766217390157283,0.0036801143133156256
1.9500000000000002,0.09376914033656367,0.04839827430607878,9.626023621344247,-0.0245614900836296,-0.020944097789756897,-0.015457494952534432
1.96,0.07623693502636616,0.06809530583205863,9.69715016045045,-0.02255216882659641,-0.02207423045074667,-0.005023545965528831
1.9700000000000002,0.15718738415404535,0.06087865419902635,9.900779351949767,-0.014120636808131347,-0.03745303394048649,-0.004888769471472435
1.98,-0.027797439816028724,-0.05886706933491085,9.831817107979203,-0.017440879961572626,0.0005338188899861857,0.0020607999314021133
1.9900000000000002,0.32002740750551023,0.054239440664841064,9.503446837560704,0.020053629715305984,0.019054914028229727,-0.0022232054480585722
2.0,-0.2564542362139653,0.02933851580135294,9.73359068890688,-0.015612099240259915,0.01738934627694054,-0.028744073007492075
2.01,0.09016767631340646,0.23468806024247688,9.830230394396372,-0.026268856770868956,0.0012854092520963914,0.002568629112908839
2.02,0.0988396081978953,-0.010616858187517508,9.459205608264558,0.003148476115067207,-0.004395433271744547,0.005955098046394723
2.03,-0.040571540408927804,-0.09435058656651822,9.456823965587981,0.029073860922486292,-0.0069301629324970675,0.0020712559359321397
2.04,-0.10985007138169728,-0.1728255897808084,9.517688543495844,0.008376415095788162,-0.03568263424253348,-0.012238273950235048
2.05,-0.32323448826154866,0.23712353333897418,9.869192049246475,-0.012849180301770853,0.004489172111884765,0.003147051960738746
2.06,0.23727938818536232,-0.165516293399525,10.00460523730641,0.027775147373750562,0.00423384831108746,0.015563254659622099
2.07,0.05640311223203382,-0.21865874634362184,10.129316780730962,-0.035399969467878094,-0.005495010671034119,0.0030549636713981484
2.08,-0.04037157071923454,-0.052206642436465334,10.217231470661227,-0.005932664032464695,0.01663921413732624,0.00505005508960143
2.09,-0.23397528628192088,-0.07189218133741636,9.89101055172434,0.027614500880124317,-0.028242019460212115,0.0009828574564044147
2.1,0.023529093893507404,0.305446855317076,10.158546022949333,0.011047106343784962,0.023869266779222957,-0.00047730456887853993
2.11,-0.17784953849366805,0.016337486265231464,9.540259293878119,0.029716246666641778,0.02358156898030737,0.0007565457508273127
2.12,0.2343934977823357,0.13527605421566113,9.720823407469041,-0.032561356920098705,0.026462560073929938,0.01480158868293588
2.13,-0.16438920289055495,-0.25855910122550624,9.70669834710775,0.0030868318094752095,-0.030339191720958975,-0.012540331468749296
2.14,0.14476218705787272,0.08853662610856163,10.176613535840909,0.015868773410436753,-0.002861552492831434,-0.009806177524409354
2.15,-0.33315049903929406,-0.060216692396143294,9.727800192077668,0.01654148814648716,-0.02008290615636729,0.01071576384672946
2.16,-0.09592396966438838,0.12115786024840995,10.080526112517271,0.03451992057591687,-0.013923902139810231,-0.014560308577632717
2.17,0.27101457894558717,-0.20755999704360004,9.809955324004761,0.015483543384954307,0.01673051736902681,0.011271657424964877
2.18,-0.08996951838619419,-0.5414435203775197,9.868193343925043,0.01227804883162429,0.015676626337458473,-0.003119805274884447
2.19,-0.10670641635910677,0.024297292081602254,9.861638977405558,-0.022481902393841943,0.006544822752092439,-0.025486051098603604
2.2,-0.022198766173304824,-0.04522235702869925,9.935801016349266,0.019613720717504366,-0.015610413353903526,-0.021293442382617298
2.21,-0.016773625093803115,-0.13275903521969343,9.830277446026656,0.05026119401043194,0.010038743955686841,0.009503062273624515
2.22,0.01504903544453831,0.07122287926624192,9.875191357883446,0.0339962411032275,0.003978032206323227,-0.01667560190294006
2.23,0.1418997608405298,0.23009831640838516,9.779734256940216,0.010161524904229393,-0.024912933257170217,-0.01494909162693656
2.24,0.3354274490203586,-0.4412820294657223,9.805523141933332,0.02011643061066349,-0.009098902077356587,-0.009234302496054262
2.25,0.08281580115939724,0.11156870308548475,9.800839122330954,0.005405197583113192,-0.00702501310913082,-0.010560503743326647
2.26,-0.11551442110358173,0.29423885173539616,9.642000396397243,-0.009600957373404896,-0.012322488809402664,0.02780766105866151
2.27,-0.46302898199930764,0.1494552669047177,9.598136388995306,-0.017351042633764434,0.027894987214905593,0.03044389603312714
2.2800000000000002,-0.17279130866910394,0.4081293047485777,9.645038505600056,-0.018250095361996434,-0.00817461250484596,0.003854450476486568
2.29,-0.029367793147669873,-0.14898643484943952,9.975419535617455,0.03489249891210817,-0.003350203531660326,-0.021917543330052903
2.3,0.03399868622421849,0.1250761655120803,9.696015754855502,0.007627850379400084,-0.016474806453935294,-0.017679289884323737
2.31,0.245657370114993,0.2716076510191202,9.646433595773628,-0.005140064357618205,0.001879812762346356,0.018774865566370726
2.32,-0.08884063236925906,-0.0807777480112475,9.956988025808137,0.023372302909246467,-0.03582893275538482,-0.008027050854968623
2.33,-0.10669997426375576,-0.11544400173051078,10.037001698700955,0.013430494405419272,0.010718475422186305,-0.011762830474435987
2.34,0.11083152453782646,0.005326331973170038,10.038386549568225,0.03053722603525085,0.03214315227481178,-0.012779838371246376
2.35,0.10196995475348232,-0.14476013557694578,10.031099394123219,-0.016847375183268856,-0.0070260659988451695,0.02173792826628141
2.36,0.15394025616195242,0.20236942468701521,9.88641023324231,-0.009972223120698467,0.03203578439717264,-0.03524681564092951
2.37,0.07490516690396049,0.15631071147375988,9.887253447153416,-0.0016746484358673031,0.017511136975100237,-0.002344041373091984
2.38,0.12096823468521702,0.09319788022835039,9.845478509781419,0.013027089196022225,-0.00772242619101585,0.020267331075129378
2.39,-0.23847956558618566,-0.1059890882431671,9.980193471136557,-0.022682957688604795,0.005892031869621441,0.022210528749911605
2.4,0.15569774265710146,0.1013062158992164,9.649955976594878,-0.057009598927603836,-0.019907431832788022,-0.0034159395975151513
2.41,0.30299964300979887,-0.05498070244407032,9.79371798467227,-0.0013241086949569375,0.007389471978153262,-0.007681022353933028
2.42,0.11653007154492294,0.10720618578543788,9.904133933189287,-0.004311884409374135,0.025476067089234687,0.021560864598803728
2.43,0.24451593095938695,-0.040565020030984326,9.40461476093256,0.026796968286080892,-0.029325311484445737,0.0009505041279950585
2.44,0.12454042051177046,-0.1905227927833186,9.890792915968644,0.006598427634599727,0.01676782210135807,-0.025933304005361823
2.45,-0.10728966708404744,-0.1464187337801834,10.027123542796613,0.018479943736306494,-0.02078598908495975,0.0316738598150566
2.46,0.039325074617550804,-0.2139756902008031,9.952107612365714,-0.003847627946843023,0.00286439578557601,0.02272899696846526
2.47,0.0042624784302090005,0.01929221519609191,9.873674924492354,-0.0009620546492145579,-0.030744419355728546,0.013694056759549468
2.48,-0.34351541471744296,-0.16496218152522746,9.9949947146055,0.03394573668770607,-0.043879139395568444,-0.018246126185032577
2.49,-0.24876415027932638,-0.23626188903688214,9.778753727593358,-0.003565915327134107,0.010578143066741985,0.010036215952300665
2.5,0.1354592067441408,-0.01908816153688874,9.578608347209974,-0.011989904570088647,-0.004426780332626697,-0.008836122366763524
2.51,0.007782740953356698,-0.24504723835106823,9.807616180867566,0.004288133881838797,-0.0035490085449613666,0.01926205614754389
2.52,-0.05107113143964525,0.16675702460449776,9.913488367875866,0.009445576340473561,0.0002503204588815645,-0.01572811135186032
2.5300000000000002,0.12003425316206776,0.0988630445340914,10.026380658158784,-0.021120352622568183,-0.017062270763825306,0.03264556549351213
2.54,-0.2142751798735435,0.005200721347365862,9.976802170249336,0.031605789572357296,-0.012465310382538985,-0.019099963988653813
2.55,-0.18509184138486853,0.09195425629489137,9.433161379702122,0.015489702127603904,0.009442299759503931,0.01441102833293562
2.56,-0.03625177042829479,-0.14638494520949935,9.536938745061303,0.01997627204692809,-0.036220097968386405,-0.022006465954394115
2.5700000000000003,-0.03884943549242477,-0.08028763409125396,9.771138741682163,-0.016663274105872185,-0.013549378900869139,-0.02211043110765322
2.58,-0.06246327177219325,-0.06349759457813113,9.960241300185947,-0.005121254161867246,0.01630828628766189,0.02061754183449126
2.59,-0.02561328591932774,0.06653317131222147,9.935174812770953,0.013591378416792733,0.007782538155328669,0.034631538372068824
2.6,0.14404612456680788,0.044688553120003985,9.78153157781129,-0.012067135185863206,-0.049441436853909816,-0.005184799778335477
2.61,-0.5620930653146561,0.030434037743075563,9.806340610565394,0.02060112786813694,0.02956493903548071,0.015866073136298824
2.62,0.23243419521338127,-0.119278091620768,9.499162145770473,-0.0006089939442755338,-0.0005253364092434324,-0.018936536613700747
2.63,-0.0015750467286883606,-0.1394929653638599,9.308044007468325,0.01975178133711068,-0.011955375761922146,-0.03472398219785372
2.64,-0.06404396440684451,0.04694551420650263,9.56908307758156,0.020510072278020947,0.01883389095154573,-0.026777027754764243
2.65,-0.2060723497135355,0.15841133425535983,10.023388390723762,0.004190151035506906,0.037450751768439094,0.01692084854932397
2.66,-0.191066359502056,-0.00454039057351603,9.948859583132368,0.022726898887453873,-0.03576011620393675,0.013467078737923575
2.67,0.1409436318204501,0.1669501259476494,9.528627476101658,-0.00143215230108966,-0.003309550002963014,-0.030574488092567177
2.68,-0.08409441313817961,0.13689102956963886,9.876619592942928,0.006308500009211018,-0.01132710191191855,0.022759683160425582
2.69,-0.42342754714717507,0.04390758555098735,10.02733565112506,0.027357266648484813,0.004019260150924151,-0.008627510701323685
2.7,-0.07038417237175092,0.07618118284008162,10.02634281548673,0.013240615235494557,-0.02346649748756667,-0.0014627782270895593
2.71,-0.09108974022967925,0.3078035095729601,10.368853573109766,0.02667142986703678,-0.009030150334195025,-0.004769086197252433
2.72,-0.1500113601659203,0.3677597533486921,10.020613705094375,0.013875791237618312,-0.022709765298344523,0.0069557625246880125
2.73,0.21763469690209541,0.17436201356351538,9.962151037206606,-0.013420447766576155,0.004161425515809533,-0.029416519826449192
2.74,-0.25415491321379585,-0.05047818304226716,10.10680432881911,-0.0008610896622693101,-0.02352672226541019,0.016600946107699344
2.75,0.17247720279842826,-0.06278999505069098,9.904071286990268,0.019676132607452646,0.001615675016865733,0.012005042999563221
2.76,0.06991339671940187,-0.2571100192300641,9.798060345603862,-0.013760410546355949,-0.004266765801065829,-0.03878981021932913
2.77,0.0964899375615305,-0.0007354563484112259,9.987170114195244,0.011575496264619798,-0.0052116714987819985,0.0061433715909365375
2.7800000000000002,-0.26930229050642235,-0.22766029837108243,9.818570369774218,-0.014233793354720798,0.02517894594890251,0.0005717837076668902
2.79,0.13417612962077555,-0.06257705543535551,9.65805124634842,-0.01001189104310694,-0.049026349373325076,0.00344335669195205
2.8,0.08808709920256155,0.23534819589109632,9.798785879800825,0.0007642043600615924,0.0030333411132441503,0.008330183966540837
2.81,-0.23780488287079413,0.025218195174033134,9.628009861798601,0.02086740783143695,-0.02443916563159506,0.01734495580485501
2.8200000000000003,0.1241524454451593,0.23460386905617367,9.803004183172442,0.021759984011675303,-0.009576208195371336,-0.0040725293441072
2.83,-0.042000329072688775,-0.12972220613431876,9.932069849826602,-0.030078750730764135,0.02030675589595674,-0.0023490059979351208
2.84,-0.06737200823706482,-0.04975458118563512,10.127568880838918,-0.007713039049945553,-0.01599277773259778,-0.031262818448979254
2.85,0.14699666861296876,0.004318668343646887,10.104362369444077,-0.0028949531632033744,0.0326795628602311,0.006843759965293534
2.8600000000000003,-0.18778444818887619,0.24559737208116553,10.0691714910475,0.011608262544444213,0.008198271915648713,-0.0025782198156284954
2.87,0.11441833487916588,0.04129500360454811,10.136093849952957,-0.00755364493856694,0.002940493268687867,0.011068449272690274
2.88,-0.09531798078432081,0.2013412889241223,9.692625630816257,0.00842046902972582,-0.015575099985073431,-0.021710449657357835
2.89,0.1715747481244417,-0.14014029722604884,9.536566695424888,0.024765903742157556,-0.008058245564029391,-0.029685948011380657
2.9,0.16894739156977426,-0.021624861260395808,9.764374672798972,-0.010147682532120157,-0.008350067923767747,0.01818590219012782
2.91,0.07895679341760838,-0.09104459699083106,9.770023579159789,0.012400640980177373,-0.00529567914422175,0.020371151375041502
2.92,0.085489092181116,0.1592591894853698,9.72970766251375,0.007988755450186655,0.03609056473500965,-0.019141254031198127
2.93,0.5427299696502775,0.333240769698218,9.774514915207273,-0.01272669262555308,-0.01224675578161736,0.012531746490159944
2.94,0.09475860914732943,-0.28854308486484564,9.489352335278468,0.0036196782024953875,-0.0037579939670070376,0.007287288133672546
2.95,-0.0966763314348493,-0.1556475282674069,9.835549909585406,0.02549654000982817,0.029707972731532115,0.0090487316180046
2.96,0.09020320236266118,-0.1375993237198193,9.810297334412608,-0.053707300891975125,0.03953201109418711,-0.010027295526616927
2.97,0.32884340822161673,0.06946636668710819,9.535726410258125,0.04841573514508017,-0.0343949836459724,-0.027259878409755422
2.98,0.03348832837869789,0.21336613008949676,9.42707636043526,-0.00028981245708766413,-0.01223183228102006,-0.005844383548206434
2.99,-0.2771220294913734,-0.3809518452280805,9.906656394542777,-0.008576969083389101,-0.0017187086262769374,-0.00014753047165850174
3.0,0.11533807713729945,0.1067681077190388,10.024906711195094,0.03314013048186891,0.004953045029313939,0.008694289343434048
3.01,0.17139794649003884,0.09635556570359669,9.588778937669268,-0.014245857701583762,0.038856422271319,-0.003997897018668403
3.02,0.2452176851539937,0.06046093597701896,9.690037629557487,-0.014925576899662263,-0.027015770258112554,0.0286105631224704
3.03,0.13060307797200915,-0.30824414969992764,9.740532284779965,-0.005135093311041963,-0.021369456104942505,0.007180969351495752
3.04,0.1932754693579135,-0.17394223630354133,9.81010978782616,-0.010615564036547709,0.006059231653691789,-0.0304466203850383
3.05,-0.23938040191295862,-0.07503249413238183,10.280789898186432,-0.014837530381343592,0.006867029496400103,0.01864220465789011
3.06,-0.2523866120533201,-0.07676615741820739,9.832889553169577,0.010494522585913074,0.003973992256157083,-0.03344203807101795
3.07,-0.002750857326286442,-0.01609160205977391,9.664076944023464,-0.026767661099888238,0.00013237919386227117,0.014859959139779073
3.08,-0.3736328400977232,-0.3623446683759932,9.604700675857014,0.013200319512138193,0.02601445329492491,-0.06727614180431248
3.09,-0.11488569179714496,0.11490480456601189,9.994438190068852,0.007639436171201294,0.0020055448278160333,-0.0014779208031388035
3.1,-0.07986936221105416,-0.2137409850594856,10.022155535727588,0.0262841825415036,-0.008178046223761733,0.005071810999523051
3.11,0.11662826069692925,-0.29886209576831674,9.797836382937128,-0.005530645636221051,0.00720578777369462,0.012976592916889454
3.12,0.13910251206434956,-0.1825841178462391,9.612491441060927,0.012223183249900228,-0.000908556677859145,-0.03370060225870433
3.13,-0.00045710269245866493,0.27111351903937675,9.744584763933226,0.012255267204070414,0.010062677186997132,0.002238148768748361
3.14,0.08205467465168834,0.09820912112724198,9.793050670019547,0.006317517147073307,-0.0006979980773278803,0.013771004005545835
3.15,-0.11904758848059815,-0.1770196168381094,9.890808503200969,0.021553888234590993,-0.02008505324332641,0.03573319197093315
3.16,-0.04411331879319238,0.5466155915237413,9.912771498971498,-0.03723954328781538,-0.01396113251325433,-0.021045158390923344
3.17,0.11769436953210892,-0.09972885030612579,9.696968544197576,0.00268586770713437,-0.015180606637087384,0.002799355269213963
3.18,0.048588565232191405,-0.11166737514681266,9.587601538250984,0.011608965259993536,0.000988324822235733,0.018996105212368056
3.19,0.12910223491096043,0.12904808881536878,9.959339909889769,0.05179966811017862,-0.0024779086627581028,-0.005629071471782948
3.2,-0.19774129400959128,-0.29276080000553917,10.100794331986119,-0.022690541020033043,0.00040645236952097563,0.005561231415889343
3.21,-0.0835706440228471,0.08048140528866503,9.924299988441241,0.003746425849555576,0.01791710687791331,0.02208976511618754
3.22,0.171282112392896,0.20163482544095684,10.102551969986935,-0.01614707985633923,-0.004871075484890094,0.0009769697446904018
3.23,-0.05854562918733112,0.09612347898845762,9.671848300445635,-0.015462868281343585,0.004273214195767029,0.0008867136728787346
3.24,0.12461801752525951,0.3167567763481716,9.988513295139287,-0.020015060199096785,0.031232841944057507,-0.013076068144426077
3.25,-0.23912387687987446,-0.017236745474689754,9.655833602518976,-0.031468570748223505,-0.0284890105353546,-0.014909087654940537
3.26,0.06234995693994007,0.12999664527609606,9.761497592641648,0.002934136489796168,-0.002938118056230436,0.01339339765390841
3.27,0.1797809920096689,0.31128597933091945,9.636908712729323,-0.01919939684817424,-0.007231099938799285,0.028701589499456885
3.2800000000000002,0.16627738247992158,0.1723816824331867,9.853195637173641,0.014472315719980677,0.015835319161929977,-0.04064253130272865
3.29,-0.1664983621149655,-0.04845332563387248,9.463967696752992,-0.012882079073558516,-0.019225123013749977,-0.0027656243478356105
3.3,-0.32017619713141077,0.012552451731140205,9.978145462414616,-0.020265738671678815,0.0061782055857104,-0.009159093143240017
3.31,-0.07336862547067263,-0.23220944808357294,10.05608695617329,0.006182187058244875,0.004012014950773245,-0.034203379134042734
3.32,0.0015919045242910857,0.2855069726591867,9.878343101483736,0.006745621576646994,0.009557409565533683,-0.014413678383742275
3.33,0.02451992216546668,0.03852896773753368,9.978135179830367,-0.013979815773772677,-0.0230686163817479,-0.01297199970987862
3.34,-0.2761939875253998,0.08921436924356194,9.779903276165207,-0.006437509540570201,0.03957189965962647,-0.0029450963021394844
3.35,0.058813142824111424,0.2448731631162698,9.272261250684277,0.008772086918564685,-0.011432144876348459,-0.02079122027994661
3.36,-0.434348232793731,0.1462466779143045,9.302896713510615,0.0021552958198289077,0.013599058833295588,-0.009775210572305694
3.37,-0.13441962244514308,-0.18240910017801656,10.115986826649012,-0.0325939861052848,0.01631137345789255,-0.023693321318840787
3.38,0.024048019517148633,-0.001539872305909119,10.059796633903723,0.00960834028644747,-0.024857454056488506,-0.0201336935956642
3.39,0.012458171376954324,0.06397713727502781,10.13307877212485,0.020814278755280403,-0.01076430243966448,-0.0011443038441255457
3.4,0.1535239380526473,0.005051440144170217,9.829597958472759,-0.03194295353320461,-0.03436207316793411,-0.02387698419036952
3.41,0.2610185697399364,-0.11945098617772165,9.787910497054758,-0.005610622467899892,-0.05705439438653757,-0.029958512939269776
3.42,0.03956380676035999,-0.11970559577281746,9.539061107385022,0.006158466362018903,0.00497470977103486,0.02939188812670243
3.43,-0.16266994462106757,-0.00421782930228007,9.747743794758012,0.003294224224681222,-0.01140241788101576,0.01469947343044386
3.44,0.11163999996841087,-0.07558040132465052,9.927194610520194,0.010329867413122492,0.004778316675463291,0.030280920506082474
3.45,-0.036353923112401904,0.13459005904494523,9.510011755757256,0.004214544447849579,-0.0018020594063970217,-0.0078774430978033
3.46,0.1273854846246297,0.1985052428454851,9.702440297747517,0.02355571809948859,-0.007266264960720658,0.02980536669245932
3.47,0.2319833903862583,0.018879255645518116,9.813110526567886,0.0035248969375078496,-0.04019709961061777,-0.012459622061777332
3.48,0.07649165209022817,-0.15653374050870697,9.970885110035796,0.023769175186187236,0.007740532693006893,-0.013730871232348068
3.49,-0.14836016393297158,0.35096230107408344,10.385984720056527,-0.007285553364822526,-0.010113961576010301,0.015103562565055153
3.5,-0.017727911890818814,0.09868468130520892,9.684293264558836,-0.008929847065051809,0.005334704462855869,-0.009746893774220168
3.51,-0.0941523511121161,-0.04889656002888372,9.841473572476833,0.024376906335508736,-0.022806332605141335,0.0059342257041891935
3.52,0.26089795633836554,-0.027938076557622843,9.558898588851921,0.00836043887058614,-0.025418731961914316,0.008827324601173228
3.5300000000000002,0.12579214215070947,0.1308681290813859,9.606404357048461,0.003535126419632452,-0.016059867926066246,0.0068932828158485265
3.54,-0.07724496062122481,-0.11281748606828283,9.081526989546397,-0.007003172515235978,-0.01861337897849723,-0.0028585316101714473
3.55,0.00770274161034846,0.030297106445600845,9.611793193952607,0.023046638285814033,0.010848530598112827,0.00552590899530354
3.56,-0.05403979337838106,-0.1605336063634327,9.913653403382469,0.025246104293976567,-0.03951526792445579,-0.028005844835340767
3.5700000000000003,0.10249162975147395,0.18276078616950198,9.877900890744163,0.00026030917112574787,-0.019121103894718005,-0.009006683995142742
3.58,-0.0323293887947871,-0.17281765846446062,9.991532602637493,-0.025821598883582205,0.016817890408659556,-0.0032002993174840883
3.59,0.11258070171621405,-0.3811873787182274,9.721058240725503,0.001287789162563363,-0.005481981006228642,0.019561441064259805
3.6,-0.0498886587766276,-0.12323654391240718,9.953492188673591,-0.011475453314823386,6.634957069327984e-05,0.030033606028102615
3.61,0.2831203747520451,-0.02155748594783153,9.335374538213188,-0.026988426616983606,-0.015277796672068219,-0.027403591332408495
3.62,0.06862399039423582,0.09330616061874754,9.53398647478462,0.037737467686992515,0.02244374662921749,0.014512992459021977
3.63,0.01939256575253413,0.3027323182398859,9.477749392431596,0.022532179249045332,-0.0035256424259187415,0.018002311722722736
3.64,0.12631568721337788,-0.11846510206978893,9.703060093408677,0.007783808852914218,0.03057469582900442,0.01574633379590323
3.65,-0.0721520794286501,0.11342818723050979,9.81246731403789,-0.020505531582470843,0.03359732278161301,0.011637426453356296
3.66,-0.15484417134936287,0.19892220842143363,9.875960129643039,-0.006390406776568603,0.0002891789863179513,-0.00829148229095135
3.67,0.12319730713333905,0.15754963492403906,9.580387744615319,-0.016634396617986574,-0.0033733158297068974,-0.003005180908063432
3.68,-0.13600697501540832,-0.21482922877451452,9.435355558747345,-0.01128285658778752,-0.013302024755883431,-0.009494041988090368
3.69,0.06714843431460164,0.12838095140242142,9.465998005149437,0.049352102775732064,-0.008156223744371669,-0.015211892672484538
3.7,-0.09176414273149482,-0.2019392772044415,9.759056011286429,0.05550764198468343,0.0036351845627099876,-0.015366044197409298
3.71,0.10106421127245029,0.32567739921556244,9.954024282883191,-0.016280190307495293,0.029309978679738592,0.024516325704289178
3.72,0.10019549684746516,0.047869009562311236,9.63605479649628,0.006540393994201819,-0.04380890257808427,0.0020603718486532315
3.73,0.008611886321901987,-0.04832151861987096,9.989755522050187,-0.0236924905891265,0.024457351481532164,0.009546892296553545
3.74,0.0943629059864619,-0.06679602415274306,10.259481216834748,-0.0024075696674339202,0.0012769851172999436,0.027231088653594165
3.75,0.07890634035699269,-0.11191322939708873,9.453429286521688,0.03479133426449812,-0.014736309801650256,0.044654388718963184
3.76,0.289441873699636,0.05212410810122941,9.589648393727957,-0.0009557243372184704,-0.002464886107995061,0.02915495838621026
3.77,-0.004755455549593117,-0.19667859719469447,9.77673360108723,0.014787037032944012,0.0023272700933857486,-0.006057034073073432
3.7800000000000002,0.12306726544189066,0.21625870305111514,9.545449166254123,-0.034382239330876856,-0.03160225342513121,-0.007024938518819235
3.79,-0.15351228021313182,0.07640061305543366,9.91638765221356,-0.02455501877163637,-0.0008679152387605912,-0.026574161735761406
3.8,-0.31303331872544904,-0.11509225083998952,10.140420557297617,-0.002600134244389527,0.004039775592321657,-0.010885169085610717
3.81,-0.26391129852600326,-0.04085764491313777,9.65836570181627,-0.016894091650926008,0.03108068331555771,-0.0025409420438034466
3.8200000000000003,-0.39091937682905364,-0.06643585469643254,9.628791615898175,0.018485008422893384,-0.026033645936319676,-0.004206586260762975
3.83,0.18370751992995032,0.013696315855975943,9.629564020285054,-0.020709921163061168,-0.00732216011683598,-0.025727465921113444
3.84,0.13610816694374903,0.00646590443714668,9.592957498370076,0.032147207673681406,-0.022352607353532426,-0.003999564716358095
3.85,0.15028369101625794,0.3233282063810907,9.608015163959838,-0.007746791170085783,-0.016344791866483032,0.0057493404693610495
3.8600000000000003,0.10356881548398593,-0.09035255448033908,9.97996036018389,-0.007937436237585825,0.015564725231920996,-0.024213902968282876
3.87,0.19988883224440926,-0.08098034306268773,9.843589895366739,0.03488904512003253,-0.006962829237955882,0.039371432039556876
3.88,0.02718739209286763,-0.05216223852802805,10.16095063954306,0.04906071895186864,-0.019425504323704733,-0.024842020107397597
3.89,0.2873300270605031,0.03830172379286545,9.234370680497696,-0.008949078475345163,-0.0008152471920724061,-0.03826299952323038
3.9,-0.3090818203913987,0.09540330973797233,9.661288367646607,0.001915157825440562,-0.02246073883290455,-0.0013598371678432664
3.91,0.015531397919941623,0.052099256403320846,9.781195876691632,0.008066260945191542,-3.093277815328625e-05,-0.02465726535342781
3.92,-0.033070906076845326,0.10829587243368569,9.364982253532473,-0.01353646419545043,0.032244162923799745,-0.005874758652594177
3.93,0.14265056816744323,0.15956971455637614,9.580863996564439,-0.016943434195796515,0.010034691490903642,-0.01864349611417802
3.94,-0.1503791626382519,-0.11119193688082106,10.06941880270309,0.010353614841573837,-0.03430331235484285,0.00671273702612692
3.95,0.07070019554559909,-0.21142595645473816,9.842247359930868,0.004729726429955738,-0.025558218195541632,-0.015201134582285083
3.96,-0.07488482096805135,0.42776607031657826,9.837471711487463,-0.006690953201598459,0.0175033212425815,-0.0026753673033498644
3.97,0.020087934781127376,0.28906927715376796,9.81580464403765,0.0027242303423902796,-0.04736397503903026,0.008168583554327384
3.98,-0.37300632477828477,0.3069139476772319,9.67109991854707,0.0017554306986760709,-0.04401680972030487,0.040433250762387636
3.99,0.10521722929281631,0.30790916397791973,9.834143402323072,0.05054855864987275,0.01883067277458844,0.007559504220165624
4.0,0.17239012491295838,0.488612796560066,9.351497453887125,0.009859462599826391,-0.004037074798063855,-0.00015373892035498672
4.01,0.04542713341254696,-0.19243648183970508,10.026238783423805,-0.017437189983787793,0.015934319218022745,0.022801182440968015
4.02,-0.05280710926291415,-0.16252707715461104,9.579980356844096,-0.028139383326968217,-0.04696987535277478,-0.007302775485782246
4.03,0.02317606764016695,0.10470988840916934,9.4561902014894,-0.00632577491013237,-0.03325897175369311,-0.002586869716896618
4.04,-0.11072771157735672,-0.26363604103383065,9.623048508111758,0.012189201732401263,0.024016494348739766,0.012295328379639581
4.05,0.26927812187636535,-0.05617882934476989,9.888942778206903,0.010830170986268572,0.013764414994196093,-0.0120381150848968
4.06,-0.10251534093964167,-0.24396828411372992,10.0362339317152,-0.019150893571194188,-0.010787123086801067,-0.015629545130261612
4.07,0.06504989250337845,0.04560100620325156,10.094007247689396,-0.004405932430688149,0.010362025901485545,-0.00811210275819895
4.08,-0.32932263870519507,0.043168340986807746,10.17252971342485,-0.030133731763307248,0.020513325922536314,-0.016061023961543998
4.09,0.18889388699115528,0.21363482667768052,9.471557814785292,-0.004104008900480266,0.014254235508292273,-0.005371172317444355
4.1,0.03674237054552394,-0.09054919658411911,9.408638276449311,0.015610903715986104,0.004318939216131876,0.003369292919120786
4.11,-0.05543267494812118,0.21358796580792874,9.853512446206935,-0.03087003434094355,-0.02155287919012585,-0.002472275680117906
4.12,-0.5177641070900724,-0.25238093446703347,9.907712946315124,0.013342615374921372,-0.0033573448708302898,0.016297571026953207
4.13,-0.30658259932750453,0.009860607487269486,9.820026991203969,0.01395895973492935,-0.03275002214618845,0.0020359922058404774
4.14,0.03366525089781244,-0.023400735750609428,10.098753357315829,0.011903375100888276,-0.01623986385462981,0.004288770194578666
4.15,0.015749573143493338,-0.3610315568736018,9.546176818702408,-0.012025615285741507,0.002297417436100242,-0.018675702338667846
4.16,-0.2781020179603427,-0.18783260886450137,9.727215077665141,0.017372219315931407,-0.0035573296595140373,-0.002353955193328066
4.17,-0.007531248996501815,0.22120351524109885,10.05270840943784,0.00992456411495092,-0.002578112858828357,0.012329971722095583
4.18,0.21852758987561763,-0.12847772784916417,9.879963961861334,-0.02136157393062699,-0.004481215951897735,-0.002124157588902367
4.19,-0.0690823152127895,-0.15960242381606451,9.53079572369005,-0.02510358620148609,-0.016157844903551426,0.0419299856818218
4.2,0.019859606991076386,-0.21679087094966698,9.701860353085335,-0.018440604067168895,0.04137352732615984,-0.023111011433660716
4.21,0.17194334199273872,-0.011374423081510387,9.714533322308307,0.02434255004748044,0.019724489486024878,0.020709443625639846
4.22,-0.18859241869214094,-0.028293389450712744,9.919770202538318,0.003144759946844563,0.0019035817909977843,-0.008973527027064726
4.23,-0.11051494784142038,0.02592918484924786,9.956433575631465,0.00039184716800365885,-0.033069404234271314,0.02686760025781618
4.24,-0.1645271626196482,-0.29671755785675596,9.83987391229247,0.04236942387879405,0.014658677192884923,0.007513039061907205
4.25,8.84083698538726e-05,0.034696830495260275,9.296207869241591,0.007002058050099035,-0.023183044076900805,-0.018318402037594512
4.26,-0.036867694097314205,-0.08558068645863245,9.74394291362754,-0.0346262022781354,-0.007639052235835561,0.004796833851765502
4.27,-0.13935813255602425,-0.022900012318664363,9.827419960582077,0.011793727739090189,0.004237845049893045,0.014111817162543299
4.28,0.12102005027265784,0.06993618738428128,9.79541123259268,-0.018356868701257724,0.008918899439082622,-0.015442394673997693
4.29,-0.13126026379275885,0.09700103515249218,9.86234266235766,0.02624657633867382,0.005064448568394116,-0.029906323533950518
4.3,-0.04125990088711494,-0.05156490762273206,10.156849125587014,-0.05043658965772719,-0.021625483725319274,0.021927438654198887
4.31,0.0040784623471351,0.06265807826453927,9.533654466875166,-0.016095079708301582,-0.03358819246499387,-0.015580626878588204
4.32,-0.05484489914731331,0.04029539484450065,9.876742044911671,0.015063743664801227,0.011680783028924564,-0.022745350929769773
4.33,0.020282679840155703,0.2301491656804557,9.821721242011796,-0.00857167148815091,0.019718113381610884,-0.021655760100793505
4.34,0.05234381838743615,0.23894869944386926,9.761418342861315,-0.004673746058595528,0.017091450884060614,-0.039373340011912554
4.35,0.06657695761067699,-0.2970011227071588,10.149783766699816,-0.019502508291646577,-0.007500484043855129,-0.02145752764034868
4.36,-0.12466815498005591,0.1126829587479711,10.086218885305437,-0.003115279954760898,0.02846677922226129,-0.006490957386578483
4.37,-0.12191301638349701,0.23841771385766347,9.83545559648424,0.014400462042165486,-0.020509762423103393,0.02761853127192783
4.38,0.044613566601561405,0.26921965026474964,9.978153333107791,-0.017675086639908705,-0.00975800251817921,0.00134624522236853
4.39,0.12658317520475587,0.007695814307736955,9.985447596259801,0.016295142219552104,0.0048785591506484175,0.0029742600396818327
4.4,-0.21101891758733915,-0.003260150265624406,9.68699631905287,-0.016142304822982012,0.005587497216739054,-0.004533005231217767
4.41,-0.2874424649628219,-0.20297337948159963,9.850414184071077,0.02238082771374908,0.014464161648286691,-0.00232002908220805
4.42,0.09346346808958775,0.04417821729860191,9.75909438082698,-0.0025231651030628815,-0.018132766928861007,0.012855692742493699
4.43,0.12307293880623917,0.1347896309686247,10.09089307513994,0.023564528843172835,-0.03416104553013232,0.02241197907874096
4.44,-0.03649446197133815,0.046189034109600374,10.159673798770775,0.004913931182191644,0.002556225638531466,0.014593774801235236
4.45,-0.2727953355778157,0.036875555471557256,9.777535940875847,-0.012464986889033912,0.026301405725770628,-0.0005817746086671067
4.46,0.2885084066391461,-0.08102718059591804,9.849012623557973,-0.015444820907968339,-0.002532037854697036,-0.0007415226219843628
4.47,0.14145939344067743,-0.2941554506517054,9.759234366719838,-0.019519973457983165,0.008555358996253998,-0.02557510363152786
4.48,0.1172650801330568,-0.2824047692180683,9.66762367689488,-0.0072565815781564765,-0.006694104877685375,-0.013361022976079403
4.49,0.18291322293672105,-0.09952385075862438,9.968068882987108,0.016083473923708493,0.0276944458910515,0.04218615084859795
4.5,0.15645979533149013,-0.005017390656118936,9.621876758526632,-0.009747474751749257,0.014034176525319908,-0.026238476243923718
4.51,0.04667378520747906,0.0441335924623555,9.48813066032314,0.011468079127038686,0.012062294935457005,0.009852933741745236
4.52,0.04424297351209687,-0.04306923737361504,9.486739107636577,0.013012802705218623,-0.000845786846210513,0.0071717342670166795
4.53,0.18467846885384157,-0.1789889174451257,9.958741983972114,0.03299273086751114,-0.022340595103027307,-0.011555041795695819
4.54,0.10940494181660336,0.11281215361255435,9.921285746370053,0.0006565941208774864,0.013002908502034583,0.022024128378017812
4.55,-0.2114810904199805,0.05681599779431955,10.182886608915023,0.01218800481281691,0.015317829324467501,0.010727995489878983
4.5600000000000005,0.34605498521596906,0.3175835721853479,9.76444658711822,-0.007894370431795522,-0.006325745932289224,0.03640355059407035
4.57,-0.012562109603943016,0.1424809320982951,9.792850513062138,0.0026138802250695405,0.01809180447869058,-0.056300115059045225
4.58,0.28784500468293595,-0.07796386579934356,9.874345319745082,0.009448603932545015,-0.011199004271717074,-0.007112771808653136
4.59,-0.03407837958869171,-0.2093450103167967,9.653906543978017,0.008177967817515562,-0.006247679610563684,0.02619652211722411
4.6,-0.11103468926466677,-0.20727950324555428,9.35594252217857,-0.010146967255331424,-0.003928950647671613,0.03973042246614611
4.61,0.4113664796604166,0.0788206696885922,9.744888987212338,-0.03018922355924779,-0.006879252806306478,0.010779640578896205
4.62,0.18175481570159907,0.18274507559805228,10.120351914703678,0.0007308827784434892,0.0287565723859834,-0.0035602642443029603
4.63,-0.0029000140797425956,0.0588401015370647,9.641027229110836,0.007213485530636363,-0.016948648540381576,0.018875572171870223
4.64,0.02777477964661524,0.2104679192947241,9.509125295289481,0.036189736124057605,0.004915605739423057,0.0031373212738343287
4.65,-0.09880347901505625,0.012404776237464419,9.59927476533295,0.016043227682904164,-0.004682373081019991,0.02154653896891687
4.66,-0.28215839195328457,-0.09744428083801898,9.57567410827621,-0.020363961500629763,0.02982253215411294,0.0018762329800743793
4.67,0.38353661621872015,0.03890612722051692,9.623551697585365,-0.015127017663577392,-0.006761085434261202,0.03607904283113391
4.68,-0.08119268261521524,-0.3067214076457581,9.850668634998616,0.004321328713381013,0.02160548585588368,-0.017515292264737067
4.69,-0.05935284924234159,-0.07224482721829038,10.226580822898624,-0.04089595845828777,0.04106225604394988,0.013744242509936036
4.7,0.008884637266268704,0.11932031552233452,9.991280804983095,-0.01149534164412963,0.001828548979524991,-0.02205224197119389
4.71,-0.05395159241418434,-0.01837405749937811,9.999354619899966,0.012696636873117437,0.018308533327909642,-0.004787309005436722
4.72,0.10000536273158969,0.24496147174793748,10.44486062095768,-0.01588887271415574,-0.04472193274093778,0.03471643228621268
4.73,0.07901492073588447,0.20343913422810792,9.581933167638244,0.00030509327822156573,0.02350956630484882,0.025433426684279312
4.74,0.04347478649353395,0.23601192282169114,9.65552997442678,0.013584804194981459,-0.018168494061194966,-0.015770396813085015
4.75,0.16632504552466346,0.20712731554350597,9.481512697759916,0.003460440227660536,0.02328304470967036,0.01717813319406731
4.76,0.21956154884278178,0.10387651378149855,9.350089432539042,-0.03140851949882363,0.008941975235167099,0.032115737615633515
4.77,-0.22846838536782862,0.34427618640841023,9.851568585336894,0.0020289689461454527,-0.03372302384046482,0.03007919693546875
4.78,0.02462011197289595,0.19726588139102502,10.242170814803437,-0.04362323715385067,-0.001106080836938418,-0.038268652404583534
4.79,-0.14258921960887772,0.12666704994217542,9.586965820567535,-0.03909431826048176,0.012772873074538177,0.014051857101821715
4.8,-0.009064908757078044,-0.3024980430712374,9.372208672085955,-0.007772078623980594,-0.022004988235252203,0.03583077246695187
4.8100000000000005,-0.025811422056588183,0.22657965558492124,9.722025804703016,-0.01010581039264609,-0.016363258884047435,0.013770150562757674
4.82,-4.027174229519484e-05,-0.17876378222711273,9.964904549194156,-0.010841742499134445,0.03477204475763264,0.018305943685983747
4.83,0.019926146351695293,0.16530281193003782,9.686240524353506,0.03230396771680208,0.0060905356159729526,0.004393895186531012
4.84,-0.0388737978906987,-0.025730409033574417,10.030247368810395,-0.010025039886403821,0.016630300727759784,0.014237157639419734
4.85,0.1470085571083303,-0.407667472424857,9.88216088352273,-0.02147523561924592,-0.016271481798222198,0.024975270225171757
4.86,-0.05407179338741006,-0.36173677382019115,10.092509379717583,0.00770233712711663,0.0013417277171094838,-0.01678145860363928
4.87,-0.013102146448090475,-0.09829481524422208,10.221918180216447,0.012314664338940346,-0.013733496504810212,0.022104171212589886
4.88,0.06176516354766304,0.16144847405712032,9.1732117753079,-0.0008613559101879531,0.10105677518714752,-0.007366476512839818
4.89,-0.16070158585546518,0.24508453143954406,8.417399700317047,0.03030081309280429,0.7335561106134035,0.031057247934461404
4.9,-0.19353752260082996,-0.18741779482844378,7.629813007779463,0.20328491861586587,2.3200215505122244,0.01599178303946198
4.91,-0.366626826020413,-0.07530874607027306,6.932388854644245,0.5315008118640822,3.636575926320888,-0.034265176115005486
4.92,-0.3109078170595483,0.13050333119571744,7.9921954980746,0.6195776151048797,3.3016424762570837,-0.02796377885803787
4.93,-0.527635154182536,-0.22846413474944038,9.157498233248482,0.3079392478103815,3.2359285164166964,-0.04177266527542092
4.94,-0.701809684624969,0.05085348483938321,10.387850883320151,-0.020187722598218622,3.2887211001840284,-0.03595562203473493
4.95,-0.8375898944182716,0.09718778959342791,11.146220354682052,-0.1323010345588588,3.3355533390474577,0.03801684253771628
4.96,-0.9483423665564517,0.13628042273348423,11.805936721345551,-0.23768416690674923,3.3825950624362715,-0.011866750484149993
4.97,-1.1107732470449747,0.2215061055868739,9.45739009390649,-0.22468474559793017,2.739315965389544,0.017626166541168276
4.98,-1.286735470206701,-0.09259067839368987,9.042521748666323,-0.1510518479232677,1.379052499662086,0.13151111231503884
4.99,-1.3693966065810936,0.13135540761289105,8.940781485864703,0.08464103272789779,1.1424885637299786,0.16563237540745962
5.0,-1.8295688525357199,-0.010975995994386867,9.273901562082706,0.3703074608296613,1.8227850465084852,0.11246875418601868
5.01,-2.3756878034191073,0.4221105659513681,9.47084923111061,0.36343120260166484,2.5415409199897714,-0.026186684325754755
5.02,-2.631530420503547,0.15610175754061684,11.126007984033937,0.21852414940205656,2.963285831059785,-0.03198977672622779
5.03,-2.7944560722291283,0.015313724270873685,12.077597960404434,0.06347241699440453,3.1623416371028643,-0.04163925383782194
5.04,-3.0868311292966597,-0.04047683093616436,12.312295046670398,-0.004115467208494357,3.12706762511948,-0.010429142746614196
5.05,-2.9297811120094877,0.3070428862071558,11.411365843914453,-0.12070774304243564,2.9547903428286673,0.018153284639841186
5.06,-2.9846555379996174,0.20393881540961392,10.66719345086237,-0.15662895070439775,1.9843500475181626,0.04916113517009096
5.07,-3.447569646782713,0.18604020352259745,10.765944404438695,-0.20466177323535556,1.433120193966221,0.03841784153738706
5.08,-3.2718456059569077,0.35213207061818896,10.511022753064008,-0.16973116481063705,1.506284289764514,0.08076594698195931
5.09,-3.276115426049799,0.12471693663938874,8.804633450462449,-0.15123631148252606,1.1367593016966877,0.08738962691345675
5.1,-3.5046787138471114,0.4381748613076905,7.6832736876161265,-0.04447392781168537,-0.18242598778379143,0.1606709701185443
5.11,-3.5230216478980156,0.11921995182041348,6.918394962352768,0.1021677842873543,0.13355988671008842,0.1506236285649672
5.12,-4.073970814878448,0.5861780989972517,7.549719029460972,0.13037091721304306,1.573371496900355,0.020066510167591613
5.13,-4.703158842074627,0.1560480154937377,9.018843243217196,-0.04024969958489427,2.3886948814777806,-0.03163414651692832
5.14,-4.9851154065093,0.0466513878365338,10.651154922062359,-0.21772385528961344,2.884828019835521,-0.09718150506392911
5.15,-4.761153103968457,0.00459577992985033,9.417976295174675,-0.3715768690752456,2.5433200690971005,0.015462072534064009
5.16,-4.624726937649762,0.13053847451580713,9.326294346440573,-0.591860050542796,1.6807359436243956,0.0567566534337989
5.17,-4.888133557136049,0.13672221986734018,10.16654231686359,-0.6769763558650327,1.340804332653515,0.09663629192626583
5.18,-5.234317688037635,0.12866495290066432,10.389459689228289,-0.6031589586146803,1.6495047537908127,0.09003746771181491
5.19,-4.368419164293963,0.022657960950701467,6.830933960955151,-0.41272954653285865,1.5233842419045316,0.10464682076963469
5.2,-4.761318449423404,0.271796631470137,7.429505890416204,-0.2687528319123266,1.0458631788375838,0.10518748854394866
5.21,-5.097609007315309,0.24394369527829085,8.319861843259057,-0.2710108311326864,1.2801752559839426,0.12638143785874453
5.22,-4.726648200664171,0.17899192023220006,6.5311855701722585,-0.34118448783981764,1.7179643938260993,0.01953181904234024
5.23,-5.165072228306818,-0.013551264067737406,7.581650907268466,-0.32922143782907737,1.5906676497561094,0.01536569423115006
5.24,-5.606248696928617,0.43647436857915295,8.232507761024456,-0.04076978010669996,1.3641281002792844,0.07363457161107174
5.25,-4.407251615347523,0.028042543875545792,4.771037063903735,0.04103471309390888,1.0332994005040235,-0.028277864289720536
5.26,-5.159533213620348,0.17827666287777955,5.51986019107417,-0.2129672077543036,0.5723954470525617,0.04206359310613734
5.27,-5.954644458714903,0.3939743333306611,6.838071534493117,-0.0811532773386072,0.6040881722715835,0.09059788038558292
5.28,-6.2099508149218385,0.2578246519632024,6.992021859067917,0.12443113453467036,0.8167760703977194,0.08422658310807883
5.29,-6.476995087827523,0.22109486568934633,7.7086035264274715,0.24879359624085676,0.8411622715598488,0.05668501138487301
5.3,-6.391369402568195,0.04386452726873555,7.462081641985334,0.19764274230251788,0.5628191946530268,0.003540557586355424
5.31,-4.718922430575938,-0.2452335600545424,4.270230652060093,0.06803461200540444,0.1874788072906585,0.049749509810126165
5.32,-5.860280548312116,0.011362936685150524,4.7250405710326975,0.05798722945429974,-0.03236173690787181,0.0715644251102814
5.33,-6.487782777121131,0.0684767177979697,6.015189297757086,0.10557018008180197,0.032073028750719865,0.07303653058225272
5.34,-6.823518956594518,-0.42735142292216155,6.675043124185822,0.1540945042840296,0.23163995572739013,0.04995159344081407
5.35,-6.654502309199562,0.12013198282402876,7.788855865059959,0.08668148265972939,0.30606675610559686,0.038880414064517047
5.36,-7.2510404145134135,0.026056754721762485,7.730864390328021,0.07043810325411769,0.22424672734419868,0.010551145450506116
5.37,-5.447260173932678,-0.2490595429363241,3.9891977294978034,0.023306671118912464,0.054564335878020113,0.05684960911193475
5.38,-5.8288184976345425,-0.017049911628885576,4.475984956900991,-0.01844183610684458,-0.04823744389410192,0.07543285037070614
5.39,-5.487421206748163,0.04692459620309783,3.876542691086224,-0.022530822798411357,1.7626446846126693e-05,0.09240426903454949
5.4,-6.409812354919328,0.29577797024525737,4.253162686221353,-0.027436555787148667,0.0381866184220657,0.04118288339083727
5.41,-8.00217817068409,-0.4542305815747488,6.940284642153746,-0.044886161385536805,0.22352430718793856,0.03742379635067917
5.42,-8.398112629903805,0.191496557250937,8.261389169957134,-0.0222844003655926,0.4774257458976945,0.04860333808604825
5.43,-8.065475142393396,-0.1384669299110959,8.926530043121886,-0.02774850563036032,0.5908462962214285,0.01385035077409632
5.44,-8.111597042264423,0.6194627451048512,9.128169656531865,-0.021530848598428038,0.46790438072975116,0.014133652863827043
5.45,-5.632114927667341,-0.004960934434021282,4.891828920030153,-0.022392904761318014,0.24563150869870573,0.0265670677190174
5.46,-6.708334752910323,-0.042993471855421475,5.008844416994045,-0.04706138927993749,0.15592178500309065,0.04136088055067572
5.47,-7.617588996653771,-0.028845643015334065,6.970624021986557,-0.017293836506096512,0.1503166547087714,0.018458018241923474
5.48,-7.798100478043253,-0.2782457784155692,7.742952881453535,-0.030878429297846757,0.3311987028514837,0.03968666956024212
5.49,-7.504684170093841,-0.1293970048123321,8.242247331977936,-0.019144465036695733,0.2794853370012513,0.017994406172206795
5.5,-7.592156313715331,-0.012253204283542717,8.203625792402557,-0.011651395085576197,0.20494942505033184,0.012185382937476957
5.51,-5.873181871324143,0.03853287905917787,4.343515958571614,-0.011389886924685122,0.02639370691658361,0.04331414429090332
5.52,-6.239499571275216,0.5292191455558894,4.851128625858254,-0.056881788614026776,-0.10144228607776386,0.03992873870927412
5.53,-5.039974727545841,0.24205276381264837,3.1456357768043524,-0.029985647175983253,-0.13807485646920753,0.03896792797092582
5.54,-6.0815332201924495,0.2069891457029671,4.2664836105514965,-0.10116374621541095,-0.17963095785459285,0.06009114416800072
5.55,-8.14274184513797,0.35696310989353514,6.845105578117173,-0.10210282433924096,0.02462375128117949,0.11197848795115826
5.5600000000000005,-7.652713010340427,0.0069635241401629425,6.316114711082279,-0.1544299400051613,0.29516165566665997,0.05239548675960167
5.57,-8.398518871325223,0.10165791189754526,7.221652167837864,-0.105746816481991,0.4295680555529026,0.08782459392881789
5.58,-8.71116255804317,0.14752865252939684,8.731917512707344,0.009517626584410382,0.394560300150898,0.030167878892493446
5.59,-6.095968539421803,-0.06422994394200414,4.447633744441478,0.03459866340873718,0.21286307786091663,0.05641416354200564
5.6,-7.084824512020914,0.005891691257596386,5.432511487027463,0.011122574815788164,0.15735751651520702,0.06055541826040274
5.61,-8.189552435639396,0.10493803932906882,7.712065095270007,-0.03139782254546012,0.20287993155280545,0.03586298745881813
5.62,-8.194269011873807,-0.056936263365402646,9.358913652892872,-0.06901275451673251,0.35353450939386033,0.03472954971840266
5.63,-8.323135024704346,0.22882226677850717,9.539566551913177,-0.0035885090929583183,0.36252501605049414,0.006341954970668796
5.64,-7.91950151208764,0.3455970348844057,9.541215117286724,0.023741977745132543,0.263485567548813,0.04866703355885611
5.65,-5.8277579900949705,-0.0028921751538916393,4.769878874325046,-0.0076219839313541975,0.04933987372639533,0.0686620890046078
5.66,-6.459120596636425,0.24057008648468603,5.298711506728383,-0.013917249665483826,-0.12975275875491493,0.03324817412050264
5.67,-7.206823097562131,-0.21533405341638376,7.1976258425441335,-0.015447600353221548,-0.17677202266782432,0.025206212063282843
5.68,-6.290954606434437,-0.11791071165524585,5.151585071458607,-0.03161112799152414,-0.12560035181551368,0.06317225287104856
5.69,-7.084458775984411,0.08568489048959405,5.977177399881444,-0.02684716767265588,-0.14982185247032948,0.07806902559626844
5.7,-7.5956425838783455,-0.08195076541050328,7.38634394905389,-0.017084929281669783,-0.022526740713536303,0.03025566715636358
5.71,-6.002417395444862,-0.12364540364469118,3.9089623903533712,0.004099171968523975,-0.0021756084446187696,0.031370690482489826
5.72,-5.5707139377953405,-0.017058258380919775,3.437532317334788,-0.06896519350704283,-0.1093700976963443,0.040010538319101466
5.73,-8.210517365224291,-0.14670335880219199,6.637325595232863,-0.0424816048943648,-0.074724253796312,0.03921388566804718
5.74,-8.672582107936485,0.2596053699567105,8.071218107443652,-0.014836435433023282,0.059484455073274926,0.08108483058502354
5.75,-6.054858831974037,0.030908856297405637,4.193179399370552,-0.038312330143155486,0.18867248941725895,0.07657436536624516
5.76,-6.983502644591051,-0.1541650611960409,5.233086666414437,-0.05080026237682328,0.15885911156374805,0.05602467034693451
5.77,-8.477701106669993,0.08367242448375929,7.711236500203102,-0.10898551428066305,0.15728086402948635,0.0805192891539962
5.78,-8.623791281238905,-0.13962485283283085,9.033222298056321,-0.03440484192357307,0.21414579852840793,-0.006793112128263848
5.79,-6.570244261835041,-0.005648773366436988,4.797882671414727,-0.03083484896657012,0.254271673549851,0.02711355650547792
5.8,-7.272031632549679,-0.1578075424755812,5.679250887298138,-0.061120554243363795,0.1512313221724315,0.054298846911353026
5.8100000000000005,-8.602146665458244,-0.14617400638491618,7.639572957073806,-0.05267820588078377,0.16889819652031654,0.0388586816373142
5.82,-6.787551361665486,0.12072315713507106,6.08370423248431,-0.01966540089818588,0.1642119859811708,0.08670759924681098
5.83,-7.485857421975658,-0.11262207334064644,7.073404886552782,-0.014004562262612638,0.12104730177177252,0.04984239221338741
5.84,-8.151814080816894,0.26781927168245023,8.795260023152807,-0.04172972758934626,0.14466309045288386,0.048160357242254995
5.85,-8.326454583598279,0.25804773873947656,9.353588614330043,0.011376534683987447,0.15165157841175736,0.033438483924770585
5.86,-8.003869244805003,0.10134266944613975,9.236550710824849,0.01712094089887156,0.10444537014426045,0.0599722001095379
5.87,-7.848667141925285,0.3304428615977937,8.97171867470803,-0.007039765425933691,-0.070617694978037,0.012179286231282454
5.88,-7.346358767186977,0.06999758191185573,8.131366237366294,0.029509485762107983,-0.250372784981214,0.039085890902755334
5.89,-7.224154365150557,0.2690986952371534,8.065299279749782,0.03245827130068833,-0.4522787594727418,0.010420642774021917
5.9,-7.472244171939163,0.1912723518102973,7.576111551826509,0.027496317777976627,-0.6243462059932842,0.025109597116539484
5.91,-7.127404367713859,0.07984445330835588,7.1712368889424125,0.06189623414686511,-0.7076848223133918,0.005936862503341595
5.92,-7.136041941928586,0.23886865115802877,6.915028581872753,0.05176676229581874,-0.6871159625488613,0.039856393507852625
5.93,-7.069084594339001,-0.008094433436868304,7.020074883738431,0.015841862907927474,-0.6415952987780038,0.01087736227245668
5.94,-7.245556777004645,0.2888169267381855,6.468402781471273,0.026078511823829593,-0.5532700288320143,0.009181516634177413
5.95,-7.43581990304967,-0.23770858742248632,6.566768719831853,0.02094240112645603,-0.49976531024169746,0.04114749211143398
5.96,-7.104435569188373,-0.16105254816736325,5.638854757028954,-0.021401447659059058,-0.416646226151728,0.040593401049722824
5.97,-7.042498275991609,0.19106491708464718,5.681330511773887,0.003600120407698323,-0.4302258842231269,0.05409197410195128
5.98,-7.2842410270583935,0.1742525850052144,6.945827421449897,-0.014089623023467994,-0.2592559939360249,0.0342375596926819
5.99,-5.50797123097745,0.3984491279584839,3.4779042726462985,-0.006114996283540336,-0.1868491723552193,0.027925070552181214
6.0,-6.242245757397493,0.23660204144753838,4.229486557714122,-0.02911083884597666,-0.18287918606725131,0.0447963546681509
6.01,-7.726990176172481,0.21674588523686028,6.350981483837311,-0.050813441914697006,-0.04235794144194406,0.02592619160630425
6.02,-8.307266383354209,0.13695829178136618,7.975577557239146,-0.011823804407407565,0.20254118133233132,0.0678677399549784
6.03,-8.164611309671661,-0.07783082608448799,8.155286507028968,0.030093898791097886,0.3556884388544104,0.051430177827373774
6.04,-7.912449076467697,0.2613691605342129,8.848239958107705,0.028649172154107384,0.2994203104381179,0.04842076876167998
6.05,-5.8408554907151045,0.10649064063209297,4.6338510868451115,-0.012333866933114682,0.23928792852289243,0.013316458362936934
6.06,-5.376392160806326,0.20717387310934426,3.9225555481824483,-0.06531817671588304,0.08080472154302094,0.05692586939458451
6.07,-7.203075049503964,0.15577629335476564,6.274472656774875,-0.05880638980334039,0.026673824207797604,0.059152983196814606
6.08,-7.876213346045432,0.27791560081162275,7.75621001671817,0.027553640312362147,0.241958961574182,0.028120977255312443
6.09,-7.978521185860433,0.32828531368824937,8.916978309167659,0.0276450450731808,0.3808324167376558,0.0641824692571709
6.1,-8.047966857027014,0.12343503884666866,8.744161296554429,0.028152195002850572,0.3334588281587324,0.019843792482521154
6.11,-7.908346913286595,0.08874824261016986,9.006507119655211,-0.042611578282653315,0.18199588160542918,0.015345588745223229
6.12,-6.857153147625057,0.09431335391234641,6.589922474091295,-0.013985215531917488,0.010913188509985574,0.017342617269159068
6.13,-6.938114343576184,-0.038000905206305,6.7907804346974245,-0.0165154677007959,-0.13054625931432406,0.04641328682144969
6.14,-6.2614445712942715,0.20235471693776458,5.508255780661988,0.00366859629864596,-0.10279774467294939,0.0792821023763075
6.15,-6.665705777918058,0.3086188933930567,5.9792335930037135,0.01783436122082506,-0.09266896335171892,0.061397176625476516
6.16,-7.546603765360052,0.039982174474245555,7.2103056439770725,-0.025459279318703558,-0.048610796435327154,0.0393022605594861
6.17,-5.908114702359224,0.20334546144755883,4.920342376595455,-0.027991912421359785,-0.03278965649353841,0.022010292447806397
6.18,-6.4080449270662605,0.2598010713686799,4.952660909648646,-0.04984063605069322,-0.06126319253599237,0.07969956438151983
6.19,-7.403319387323764,0.022225886671348172,6.71145316466656,-0.014257303602531891,-0.02584071598270657,0.04899211746738651
6.2,-7.571425060963776,0.2602020578724986,7.7467556886737645,-0.004426798546589828,0.04920101269106637,0.019847998085900886
6.21,-5.74741289044435,0.171737879955736,3.880288344015239,0.020965052481908778,0.13547973549334133,0.06483487067809093
6.22,-6.584602069797643,0.07266716607892032,5.477399587154856,-0.0026765351178339725,0.08771150890931709,0.035720260221272275
6.23,-6.908969803045147,0.05018405707785896,5.842572920790667,-0.0475400581334089,0.07170130453459331,0.045209303784295614
6.24,-8.077267853947342,0.0973220631124839,7.420508218983641,-0.03083058860803693,0.12312603156804922,0.030060392476269914
6.25,-8.10006396648827,0.2664810528538277,8.821961494912767,-0.018431568092611143,0.278464055274601,0.0027709965936591127
6.26,-8.245650487033968,0.10639470343298575,9.129575576855608,0.02463682919937394,0.3556691547025413,0.010662547057542684
6.27,-8.005017872886482,0.20864900066665168,8.966753618565535,0.00399909555205229,0.24856767953969733,0.039208550100395256
6.28,-7.368215541043126,-0.0744520055365131,8.495673412098515,0.01446660580910161,0.08032659205734013,0.05753031533788533
6.29,-7.504231389604103,0.2500598435451614,8.310156191306817,0.03166709884412337,-0.11237280750648329,0.02030357386048394
6.3,-7.217134442277059,0.1748204918750824,7.943735330149765,0.04026135724394514,-0.21872503821041836,0.011903412555462251
6.31,-6.993712550976534,0.19528369630684078,7.716345983300095,0.02375353389420654,-0.3541421506953343,0.009209080760468405
6.32,-6.8756198846519085,0.30792831862705894,7.573461889749357,0.032965928947975634,-0.4133516398268928,0.011066900325420858
6.33,-7.274170160644086,0.060021719234617577,7.226861541772967,0.008403855626568695,-0.43695351845458,0.03260220321681043
6.34,-6.521103419327314,-0.12204592549122556,6.932773168097202,0.013245812945584405,-0.45433264084935554,0.026225909705422636
6.35,-6.6017483035766205,0.0026298363027573157,6.722590813544613,0.04113640637893242,-0.44874755547253026,0.021997918501324612
6.36,-6.868043845816545,-0.017036971669824597,6.736427712530129,0.0291012113541739,-0.43365392771912914,0.0646895301606544
6.37,-7.060677924054016,0.05326748366509387,6.558084944075272,-0.018987340426275513,-0.32498094292755264,0.0385900114406406
6.38,-7.0485779807934605,0.19311778625225362,6.5056962029983785,-0.030598912397710454,-0.28394454655802837,0.06001563664835886
6.39,-6.8640841663884045,0.35148141409119693,6.747571635700487,-0.007566066913975666,-0.22170124761301585,0.05515132727884639
6.4,-7.312090370988677,0.4880964555215471,7.176935671471483,-0.00999610002163822,-0.20435305528857722,0.040448218277085654
6.41,-6.984089072881074,0.1941631826815393,6.673714810960268,-0.0035932529575077713,-0.1497714356412954,0.05191102129547159
6.42,-7.490326008845163,0.20133013394589397,7.093084357078878,-0.0006070305824701586,-0.07923940246707206,0.03258294143112517
6.43,-6.968639208919949,0.2926790393715957,6.725013543723281,0.00929338103654009,-0.05585790741814811,0.014968659275119228
6.44,-7.254088338774954,0.14584784669939846,6.994580132618579,0.00526181309792912,-0.029487912788600683,0.06534232605976725
6.45,-6.823936317748398,-0.02449033953182647,7.351547180726341,-0.004590922686830486,-0.06546068456161896,0.029571742296617996
6.46,-6.7556105239901765,-0.09783007733525972,7.134798623219775,0.004102521672196888,-0.011999724661277102,0.04177545878210146
6.47,-6.688075069276847,0.5211045583271787,7.049237317199186,0.02725812170882235,-0.055211894800994664,0.08415925740028887
6.48,-6.864165265318448,0.13663534037583744,6.893971804773378,0.01684848437949079,-0.03485553677163889,0.025850199744804826
6.49,-7.032098950994846,0.11381351523689864,7.011663030801653,0.01930832834314028,-0.038190270686349205,0.028509355403344955
6.5,-7.003841760083822,0.26138175511861167,6.810518059175007,0.01830388816061131,-0.02472109955966719,0.08506458129548633
6.51,-6.77959591912599,0.36269755719556385,7.287017580047739,0.012068945478507686,-0.05670515930972041,0.005604674697836376
6.52,-7.108615779389566,0.44493375559177795,7.012858306434408,-0.009174144813058798,-0.043780835194570086,0.045893976923606826
6.53,-7.090584194267892,0.06720009998750737,6.8051209262716394,0.015993707165071053,-0.0717008881506196,0.03363209778300483
6.54,-6.889212529734314,0.0763007185054475,6.803593749360759,0.006307053680926112,-0.045976412342731046,0.03661355564273344
6.55,-6.912356600197841,0.23958586303138318,6.818961254131695,-0.013244549775839855,-0.04539102554648538,0.005115294888571851
6.5600000000000005,-6.871331160483761,0.31160467919336454,6.987444769309477,0.026350918470882802,-0.010294777477959104,0.01452826386834755
6.57,-6.803701107140404,0.0929477226156373,6.683938977559566,0.020319304311782357,-0.0042102056005930075,0.051348465911811844
6.58,-6.955818445240294,0.2636554586028976,6.978525116341108,-0.004419028202505057,-0.06705061045381758,-0.003140757454457528
6.59,-7.125831013920362,0.03353153590060151,6.711477140727582,-0.0010962453952714987,-0.028415557820644824,0.010895252232108403
6.6,-6.762928687019533,0.4048443645108139,6.704413682924282,-0.01705172950183383,-0.011572937158163932,0.034685349528867884
6.61,-6.7607838123975865,0.39555093725771184,7.061672298797733,0.019293940953003123,0.0046039034572122675,0.047674949432104756
6.62,-7.037467609599724,0.1320709828462356,6.964816982092875,-0.000543180569682734,-0.03198128391149389,0.02279111111052911
6.63,-6.816522317572961,-0.030968337456926454,7.113815034877488,-0.01229683832349641,0.025986087179420497,0.028195506754996165
6.64,-6.801754381986133,0.253032616588356,6.936449388490286,-0.009064870823662866,0.013637417842790427,0.0005079256943351512
6.65,-6.8605503145060265,0.35657703711935207,6.845447095006505,-0.045513627486257015,0.01665365445393635,0.056714836816714076
6.66,-6.945686461710731,0.023046436479981447,6.807828388264487,0.013764508585923381,-0.009428257093695139,0.060441387473384414
6.67,-7.017010164647163,0.4606086616503513,7.009689392224556,0.0012390331047066275,0.01092556047721769,0.04577118538819476
6.68,-7.173713404441578,0.20857072115612738,6.875027615898594,0.006473056159420001,-0.018903550700896138,0.053457462411563746
6.69,-6.98898740553428,0.26981978741934215,7.057289885698364,0.02953180762438166,-0.05581536713129373,0.0671716746956964
6.7,-7.063772376076949,0.21130307301552376,6.690511084507236,0.0020221155044709074,-0.0025071129302741135,0.04305185803365001
6.71,-6.644297720708554,0.06163054968302156,7.008582162004421,0.024583041003193494,-0.018338386230094657,0.019202830006494767
6.72,-6.917156227352841,0.12840624820425003,6.6324821415398745,-0.012979581944947405,-0.010508914283800762,0.055483590994778946
6.73,-6.853966070658501,-0.0577076432575625,6.803228676437788,-0.05252190530148305,-0.008786494882644425,0.060205854065223816
6.74,-6.550077244822257,0.3740261808067015,6.613121735883459,0.012164347535656244,0.013365050825727745,0.05222500908173665
6.75,-6.514374839726241,0.312620029642267,6.145001541308931,0.0010817490641096958,-0.024805021365808387,-0.00952729784460015
6.76,-6.871420169536686,0.3872734291881953,6.645215141249393,-0.02630512139810263,0.030223941128266204,0.07333760399071035
6.77,-6.843631348014883,0.016919916593150397,6.971900405567103,-0.023362716077802884,0.06267328834609041,0.026107949343270657
6.78,-6.153966561354337,-0.035021107440731114,5.416307696322095,-0.006221066098951459,0.06876487235033629,0.038448437961749134
6.79,-7.091360540565022,0.23653879873959083,5.985245495987769,0.026269901154271996,0.04728824219490087,0.0685368572968827
6.8,-7.216186429723029,0.17934075578789105,6.723411086260261,-0.017538929263721987,0.06778893710414755,0.06773587729043223
6.8100000000000005,-7.376181700383562,0.5739021034631689,7.282062614732692,0.016007309619038693,0.14086886599306614,0.0626403036556809
6.82,-6.783033235279172,0.18310917123045622,6.582524709914392,-0.01983659259656289,0.20836603964670397,0.052135059224367356
6.83,-7.369195225654113,0.7295948210733005,7.131329632869463,-0.013009957585733155,0.21149773000194969,0.031832976555519074
6.84,-7.288588807103554,0.5088158857271685,7.507419565066814,-0.009850176033562745,0.17179769786141785,0.0602620560863946
6.85,-7.288875139553545,0.29945690584836,7.574232845142461,0.012876653046888504,0.15400222319971354,0.03473100890184984
6.86,-7.438104248954943,0.6548107325145773,7.3306898031819445,-0.013252592857166682,0.1488907803055066,0.026461918602012326
6.87,-7.1285885398861994,0.30315795703096116,7.523991236758812,-0.008504286721485777,0.10576222759967949,0.009818399414944001
6.88,-6.814041406997493,0.45505932068265054,6.4160555220644255,-0.018269050727616854,-0.011226382188973101,0.035006184219603456
6.89,-6.998052216091078,0.1309017705237968,6.740779158227861,0.013066988236088926,-0.02554995069586726,0.0293070626759602
6.9,-6.786951854803168,0.48219617795815023,7.269970339445216,-0.0072196286113437895,-0.052775495612097864,0.026824146448747498
6.91,-6.8682985324505275,0.2583731134531706,7.067597688586866,-0.004296602423030699,-0.0471326786622052,0.018764239339297408
6.92,-6.268576738566881,0.12801397723971605,6.208484267992906,-0.0020944261260978725,-0.08397020966696205,0.06522879915119892
6.93,-5.985552814806232,0.30251130893463996,5.115919442729108,-0.005788221250666368,-0.09014835264765311,0.06269855495176513
6.94,-6.372136253760593,0.21462205034235687,5.307657137924517,-0.04613613105105856,-0.12103827692211401,0.007717389150476983
6.95,-7.210745185443079,0.5679185258101911,6.496389571805411,0.03373823107056988,-0.012393998651782524,0.06916614214546313
6.96,-7.513208169881494,0.2982711046330121,7.397773641377559,-0.011269451785170463,0.16479025284912047,0.058057888784890724
6.97,-5.54366576870022,-0.03519725344282887,3.6889003375785614,0.04107927670640196,0.2817432409923175,0.047028244552992544
6.98,-5.654814413272469,0.46080164891891173,3.8599609467646143,-0.0010631309076641858,0.2459428320375665,0.050506745250260755
6.99,-7.577554681985703,0.2878809871228081,6.419793550454571,-0.05500722223428084,0.17272482191464794,0.07754307014097186
7.0,-7.599231490746274,0.25160427543099717,7.63641761918518,-0.03521215426927732,0.2081836656430572,0.0734686293122901
7.01,-8.2152892251839,0.7831195754470338,8.495211287321744,0.015158916354195029,0.36897264460027546,-0.013565067595839073
7.02,-7.976362583369661,0.38378159916645993,9.197242066036964,-0.01132876263538839,0.44172324724668116,0.05564344673013297
7.03,-6.803170802034491,0.2999325152250777,6.3876736345013025,-0.03758855609056573,0.3436658739504187,0.03218218376820353
7.04,-7.297405226269734,0.297005024392271,7.471625576047342,-0.03815152389119923,0.1899548473631686,0.008131185177320335
7.05,-7.269421810902281,0.2982219834196813,7.879085074066001,-0.018660134293319794,0.066616059178322,0.04205522462716685
7.06,-7.402857715218273,0.38273554844145746,7.5870339971458245,0.02868046149407797,0.057815488830726194,0.10326151205626438
7.07,-6.894153600656819,0.34807506809153604,6.847627736619547,-0.011607920235277474,0.03996238935946725,0.05521253681097711
7.08,-7.416461375455255,0.4903275095269916,7.230343921702209,-0.01160451188976753,0.014902323746713303,0.056468002187892524
7.09,-7.019752409360416,0.40426720992646714,7.668742795174731,0.028047781687706927,-0.09109318950988404,0.026320391389967317
7.1,-6.950793996543315,0.5136095300105119,7.397303712181036,0.011103121100613931,-0.13536752732846893,0.05545799118158986
7.11,-7.310755260060096,0.5127883602982833,7.3891985254299275,0.027975384920168725,-0.18448401525827984,0.04358106933944016
7.12,-7.358706490377661,0.38539712648170493,7.526614844982267,0.007254605808126901,-0.22303385502769257,0.06323261256962226
7.13,-6.903217237035462,0.7035338247153534,7.0843373809111645,0.02106641512409392,-0.23114216889336991,0.005231283780081621
7.14,-6.989146814646412,0.1395855135393793,7.0436203975969125,-0.022340627209493855,-0.25404216714650313,0.03906271818656223
7.15,-7.003816746260882,0.32574948606852744,7.271279770038093,-0.008801696253198838,-0.23775214163420874,0.03158203917376528
7.16,-6.146380140486586,0.3947360360914417,6.146669986102256,0.027606933393937896,-0.2458798495823347,0.06632537564651514
7.17,-6.597435483135253,0.16341245551618974,6.115356336230958,-0.05022579092125741,-0.189089504166566,0.05540068443857067
7.18,-6.7091138213302814,0.7169352790833046,6.622076466439957,0.0037001076409846102,-0.16296417037646418,0.04792516753663953
7.19,-7.42746305721164,0.7419614687833296,6.863884630345579,0.021244263892580214,-0.07897699563658836,0.043282045021919624
7.2,-7.227800236101528,0.17110097168562793,7.17383005957667,0.04842249195449616,-0.06912186692044274,0.03067298286018567
7.21,-7.028418886867263,0.2886230022101686,7.176181745245971,0.029219721132855585,-0.05981556860254615,0.05943811451369191
7.22,-7.236346063399657,0.6604598128704329,7.016948574783487,-0.03374419280953215,-0.037972218624900085,0.02051900267230372
7.23,-5.42337522951645,0.49020769268576136,4.19370505683941,-0.057025718777274206,-0.036012752658485796,0.050094031360741184
7.24,-6.340839337323874,0.4455267422302539,4.166763547371215,-0.24604912841665966,0.021805838004835838,0.021019147095677124
7.25,-7.049972118893359,0.18112273131777828,6.073947559523206,-0.14448262333074693,0.010245324742810532,0.0671069628200622
7.26,-7.854708070692188,0.24204464718916258,7.15134218617618,0.09924213726131882,0.13757994802363704,0.06755409626639039
7.27,-5.884523220672323,0.4600896952577096,4.520404335247997,0.10014501811762837,0.2652645584580911,0.12945911938887444
7.28,-5.974277223308418,0.723548728796094,4.594189994457855,-0.03463960020138815,0.32507105785001306,0.04919925205576321
7.29,-6.443918726845245,0.22402826575240908,4.867693191750507,-0.16978977202959183,0.29085288818172905,0.14677188995374882
7.3,-7.248733929084325,0.3122398378118729,5.449497042293826,-0.2244165991631011,0.22162151985987355,0.033912282741379265
7.31,-8.339004121859652,0.4438391609320854,7.9792563918269,-0.10550114304766965,0.20783644599286666,0.13461358710472845
7.32,-8.442203017776679,0.3381681893744902,8.48427543211651,0.03047862039630794,0.27096435885372383,0.10496075423080867
7.33,-6.617839486123957,0.2915153354262989,5.342913151260634,-0.02714601262744704,0.5103794314421503,0.11443238967524552
7.34,-5.572144675234474,0.42907274262065953,3.210722965411647,-0.21563632883174425,0.5752571018468863,0.04791152676134606
7.35,-7.625894190459732,0.5222616536394108,6.578207397941866,-0.15888326416969673,0.40766493088395434,0.05772378299665139
7.36,-8.193173524585633,0.44425503953547085,8.333278189741911,0.06690482854119079,0.18664434708194247,0.08747074537343102
7.37,-6.759309675555525,0.6004642326402535,5.176702960689645,-0.016108477889076368,0.15669925482649788,0.18443271115611026
7.38,-7.115116809476035,0.3064548151380244,5.797146183287912,-0.31867675189415634,0.33794960566973853,0.04785624510135758
7.39,-8.397731834159988,0.43548870033459836,8.035238084206178,-0.25243020282576323,0.3463135479590557,0.08799851640516015
7.4,-8.088501905048117,0.6741472537651099,9.072468126221626,0.027266069233259235,0.3039261809073314,0.07497828613976565
7.41,-7.3011331832948505,0.23508072532171925,7.415218820956652,0.22815958243129414,0.21538138088712988,0.10808573774845895
7.42,-6.941240936708232,0.3652550621162128,6.4576029814902975,0.07756674542408981,0.3083726175604734,-0.003237178676927001
7.43,-8.0147266180389,0.7848130685423047,8.276341098897941,-0.038394402365480876,0.2518874342075249,0.014450842015144716
7.44,-8.000515185908332,0.741309380567638,8.520008470677466,0.038175061433958754,0.11834031143521086,0.05539386912470389
7.45,-5.99683833224528,0.4243532603041884,4.9612023840851105,0.014815849339296467,0.030097215463862518,0.13014292935670035
7.46,-6.887196541428585,0.5240746582286612,5.84080211127154,-0.10062204232573832,0.013952459874779898,0.03429074789699922
7.47,-7.606144660148174,0.6474402266490009,7.135448651483777,0.00738886854518022,-0.04178190365601548,0.06553161284006605
7.48,-7.815546827026415,0.6025563802314639,8.04715136934575,0.13632731269533382,-0.06916331256349258,0.07711970119575073
7.49,-6.202668009737757,0.25709397530523376,4.7362428587359675,0.07299254132748118,-0.03930556721537906,0.09113039600463088
7.5,-6.339863168489071,0.5861757334186197,4.794241741348971,-0.16441620815577504,0.11031154886662325,-0.015331311107717365
7.51,-7.717949089858292,0.5202510400903878,7.123583036127713,-0.14152046302245108,-0.02125351665463748,0.045015213830495
7.52,-8.19883304979102,0.39609187656243305,8.03038592370344,0.09593866752922006,-0.16539114440512323,0.08376127050013459
7.53,-6.190228375727858,0.4351794416253049,4.7467319855759476,0.08751536426507313,-0.12385916534202773,0.14301547508974416
7.54,-7.07491458378203,0.27825742923186536,5.776365521647974,-0.12274100418231192,0.06512105880663195,0.033104714857424916
7.55,-8.327563298347233,0.4081871046691643,7.753601829421335,-0.08908368249110472,0.09874408144066887,0.07500212169108153
7.5600000000000005,-6.876111400731948,0.6581206560405133,5.921183886580589,-0.011455548231018537,0.015517683776756351,0.09445206100272452
7.57,-7.408486327858987,0.5208706823078179,6.94483367136447,-0.08463039065153159,0.11784367888592871,0.03246741113939272
7.58,-8.310908460315742,0.5448559715566327,8.394519660581206,0.020201731183356896,0.02239299031547108,0.07614546096833462
7.59,-8.17173778740033,0.5225290758517185,8.475950992305506,0.09373276379333373,-0.08777623192945737,0.01813816476786595
7.6,-7.627234241432562,0.9690939726964137,8.603497370016509,0.11956194336300104,-0.11013384978214666,0.03163847871572345
7.61,-7.635837075424604,0.5955290497048329,8.688541543730775,0.07177770399872244,-0.1349438168382899,0.010069903070825498
7.62,-7.616695310767643,0.7348842802752681,8.183400144140986,0.04377165041889387,-0.18980914938822158,0.008439576637412924
7.63,-5.79188771362616,0.6000115230123872,5.004409041631796,-0.12274559248019769,-0.15892666459950702,0.04383551020111613
7.64,-6.383345506615755,0.33432544525235736,5.092604447671531,-0.35196115174213743,-0.09080094896590071,0.028256587329767907
7.65,-7.205448740251914,0.5611210567725782,6.670820596722069,-0.06844841651869288,-0.2717671109653735,0.06244489355595785
7.66,-8.082526382419687,0.5447031693531794,7.683863379196633,0.24081561979715582,-0.37449743452502,0.10026369000042204
7.67,-6.392444803719587,0.8361528797804234,5.5878246794601765,0.25392239702984776,-0.26016768175341043,0.1514064452850188
7.68,-6.574187337150495,0.4379389357390283,5.055743795871012,-0.08280741586829879,-0.00843419470889694,-6.659617131563262e-05
7.69,-7.943119143695363,0.24940457641216568,6.996745590596835,-0.18020125812159268,0.06700128730093413,-0.0027804622987860385
7.7,-8.012209737497725,0.40451474273662813,7.8268538562308425,-0.04504350257587869,-0.031205348265273852,0.06829313705246062
7.71,-6.288670520069312,0.4097264676939433,5.005070916640566,-0.004073651470974698,-0.0252228241623714,0.1830730889633896
7.72,-6.976858200624112,0.21389654251648144,5.659436612889663,-0.13985870906339365,0.07928360661996109,0.026080684279987762
7.73,-7.887429110631064,0.4117240723293093,7.297155914096288,-0.13649076048010444,0.10971477781866769,0.05040964316420063
7.74,-8.247999195827328,0.8162579810080539,8.039346876372276,0.06315026010232691,0.0985653719248865,0.07496552602362537
7.75,-8.14406630020823,0.8090723852301711,8.594957627135548,0.12059426300659659,0.0844241759258876,0.032437648540577776
7.76,-7.6142202406759365,0.6563166283151975,8.725638471908319,0.11692593726226909,0.01042715759538066,0.019530701969284088
7.77,-6.271439328809986,0.5761096744084997,4.838810672560375,-0.07709361256704944,0.12633414891615424,0.02245226736362971
7.78,-6.822589098678415,0.5666284000726888,5.4258686461600005,-0.35460622079978066,0.1796163601848202,-0.013428744240668342
7.79,-7.1661391332032665,0.784962594399277,7.127898507578223,-0.09891360346792263,-0.055230304130905454,0.06597740054524864
7.8,-7.477537099947678,0.6519285426309996,7.201278102606763,0.2615295218717682,-0.2547988252950265,0.14454028033553662
7.8100000000000005,-7.64243765486176,0.37012376931700236,7.269064141387119,0.2928687628457874,-0.2403652592683817,0.043151985462474146
7.82,-7.64938030190269,0.27714650476169295,7.95139448776217,0.06791948538056349,-0.031795248356211656,0.007123179042981759
7.83,-7.645722394570821,0.6936441186166759,8.034353423379201,-0.12518697741301552,0.041918641320480836,0.031557803470780466
7.84,-7.741293455592726,0.6569505156218052,7.906474132408823,-0.02302967184416167,-0.048186250024207025,0.05267598834091401
7.85,-5.6545890909961445,0.3033215098128971,4.541475792475016,-0.06361474913993839,-0.09298649401729486,0.03644806358476403
7.86,-7.321454721426751,0.5829700998020458,6.269578227923627,-0.10330199816378982,-0.13915010926010266,0.07850475245821112
7.87,-6.716457730589285,0.42846222525967104,5.201367201977102,-0.10265920651964566,-0.15119895775479664,0.08370183798225095
7.88,-7.498910555521519,0.6540226957597697,6.68448846295504,-0.04200126416373223,-0.12879838438884822,0.05720183589018868
7.89,-6.609891495252012,0.4369810510146561,5.997270132349216,0.1056922349350246,-0.059948150371638344,0.11288162324769013
7.9,-6.9308215517838905,0.5744076873992873,5.30802639695981,-0.04938242313416476,0.06331443829368977,0.0618758416855357
7.91,-7.945254213891102,0.7920544407500127,6.893010315182241,-0.061037550436837444,0.07058142061487037,0.03319620628756054
7.92,-8.060749003205746,0.5892367383563991,7.985593209454227,0.07738533669625348,-0.04758302172517799,0.051063602228481816
7.93,-7.9132005822577725,0.6665177017991245,8.18888150526646,0.17124745294541246,-0.07050573924994381,0.02932264440174997
7.94,-7.822732478731832,0.8545321362330442,8.107119286072672,0.1431308043586379,-0.042552579101640814,0.032996263221908566
7.95,-7.527184024804209,0.9596646677534383,7.8534574898396885,0.10989287996994104,0.01858997933228759,-0.0048423888735503046
7.96,-7.504257010842169,0.7538800182428423,7.9658808312154425,0.0492431880636584,-0.0757057633003982,0.001888181787315292
7.97,-6.634347483561056,0.5164335392763616,6.603571862426881,0.019319166387834055,-0.1893691169971713,0.05773209057959624
7.98,-6.522097903795229,0.852022586361489,5.818394781263562,-0.14342830345219834,-0.187734513601076,0.0035599731462680265
7.99,-7.0097592574635055,0.6403339479250241,6.769198758194449,-0.03030513037925393,-0.2690685424148581,0.05489508818914505
8.0,-7.236857324083098,0.7721500056158432,7.060599963696145,0.17750179632000287,-0.31675153551813107,0.0796493048263244
8.01,-7.424539423780006,0.6185751122790466,7.253244149270103,0.20022034814717377,-0.24995211394422895,0.0479181399348976
8.02,-7.443444172678952,0.6098546300630867,7.400186108212234,0.053209693744361165,-0.22922378891593972,0.024177394232885695
8.03,-7.313200697199891,0.5553517119429329,7.562431226371583,-0.05475900427139048,-0.13131171128697752,0.009922717267460501
8.04,-7.364768956873347,0.4891385386931806,7.179563205183991,-0.03761369405777708,-0.2211706570663364,0.013047725491813964
8.05,-5.813054602113904,0.329585023571882,4.26012212794265,-0.15807314082348042,-0.10676337701805404,0.09273532421240681
8.06,-5.557833486183249,0.5642820311367077,3.9176653177629843,-0.45069737917807756,0.07900375440958105,0.03293217534435848
8.07,-6.985567023650031,1.0274817909403162,5.856671155127621,-0.23618005162656405,0.0034037239651620753,0.10042297064514055
8.08,-7.382334229512746,0.7859242765868889,7.240453325879401,0.23990706160296787,-0.1128903087398018,0.1459148294042035
8.09,-7.950994059545237,1.1179076062866902,7.868369108709793,0.36791389795617835,-0.09530106260119307,0.03613601688364158
8.1,-8.220241306434785,0.8204519746633719,8.217990276381798,0.11981164810129176,0.08678188079349304,0.03421954967920495
8.11,-6.270768930858388,0.51857442040866,5.115482352232265,-0.2899381805422792,0.3131357066166566,-0.02618580272215921
8.12,-6.675562459842122,0.3487680821571396,5.755520063408478,-0.6100239910783692,0.4322056375897786,-0.03548086430585957
8.13,-7.07681805709272,0.9379923085756576,6.394308020408104,-0.14759283985606,0.1583631393658383,0.16499890303232911
8.14,-7.265076674655241,0.8122759122484647,6.078297360268576,0.2026768073978513,-0.04458228421661021,0.11872866197000928
8.15,-7.2920093000641515,0.5948490417081271,7.28114537992049,0.26150621938160606,-0.10287783631189071,0.05572569961416575
8.16,-8.007090610811977,0.9667750158656103,7.9690835030902925,0.1387008250819828,0.10695808080741817,0.004366236374775161
8.17,-6.398292732340778,0.3772923905158556,4.749667130074508,-0.1905021369603375,0.36983299062374,0.017999524638966976
8.18,-6.085087191040859,0.6916534838328131,4.565512225849301,-0.5746554150167853,0.607731451630685,-0.028819235805860963
8.19,-7.160364300220251,0.3673532422887512,6.305467343606795,-0.29347448648610513,0.31899827543129106,0.1158233496058077
8.2,-6.883043249228615,1.0910866515699913,6.665303057427081,0.1671943622335933,-0.047604673372254644,0.16494632346271032
8.21,-8.056720716369734,0.9750248467373618,7.745071775777762,0.39360035856461717,-0.28851992382788116,0.15100552800378483
8.22,-8.012283400960346,1.2250916245876795,8.240791749434646,0.24504036901109266,-0.06734503468282044,0.06903857034258251
8.23,-7.794017402673553,0.9782554952510182,8.842083057277788,0.05599199549307154,0.2491618482362859,-0.01638689855004204
8.24,-7.807098226080337,0.8675931519224478,8.561702406375701,0.044419118127986955,0.28843301889050477,-0.016020613381113977
8.25,-6.023035890044926,0.662515191570747,5.205685342751388,-0.048914600557224824,0.20005107134979366,0.08482703745785593
8.26,-6.306288098781615,0.5958392730949068,4.86310881624774,-0.19575565292527916,0.09554354190967569,0.016208698016933216
8.27,-6.768240040937584,0.6833594953156406,6.504906237170103,0.06014403629023798,-0.3809507962158222,0.07766103150751151
8.28,-7.372504224766825,0.9402527527730686,7.185857479753223,0.4120741202565928,-0.7974602122753328,0.14684487062947205
8.29,-6.286859053024119,0.42407056628042333,4.964461946916804,0.26333999762495647,-0.6493603640603584,0.16931156713867815
8.3,-6.440030034574834,0.9314144502016973,4.5053783531907134,-0.39989881060836807,-0.1358799487697503,0.01091787572162347
8.31,-7.668087641733031,0.7203480982115769,6.6316782428112,-0.41488647739876006,0.08577665820121252,0.06696718876010588
8.32,-7.8689905809668454,0.907737019049938,7.939325455922088,0.12093317269769745,-0.0858917117731163,0.10039795341520859
8.33,-7.693308588654889,0.8666178638321108,8.14388065303501,0.5505605741709648,-0.48303202119156247,0.11897525314634938
8.34,-7.714988168433393,0.8049336303333133,8.296808806593003,0.5284669651750298,-0.6996550552740126,0.05903640354918799
8.35,-6.376209748127553,0.43640569545808144,6.138760964070028,-0.1428605119147523,-0.4376322578551793,0.03376797714489671
8.36,-6.818477880116872,0.7426541642467974,5.628431923770455,-0.9942557435398858,0.18522967806476678,-0.12546571855107844
8.37,-6.903380257240004,1.12152005303437,6.380537738075817,-0.7290233971969335,0.3484815269142265,0.020042986784398312
8.38,-7.134335510616323,0.8817262944786128,7.131603035438535,0.3299600677099017,-0.1429913413144051,0.14361494053246604
8.39,-7.3322273184316265,0.9446732905218237,7.681429307029949,1.0440767419569132,-0.743009779286674,0.21374293750872078
8.4,-6.854126010993029,0.9516810882463933,7.862410023563522,0.8187732019882474,-0.7685647126905839,-0.007799379959622654
8.41,-6.779464454327893,0.552789307609082,5.651440332321646,-0.04042109530960161,-0.3682341197909707,-0.08574868672341979
8.42,-6.903880027692157,0.552627677137985,6.657222726420221,-0.7484045721879204,0.10168966205028727,-0.09024076143673686
8.43,-7.131352028767876,1.0323505671662967,7.152229453374578,-0.5118456572557992,0.02288824429393057,0.025957797608488865
8.44,-7.335066075168739,0.9292636025056905,7.654767011928342,0.4351238698835479,-0.47571202266069085,0.19119876211704237
8.45,-7.4920948042168405,1.2837076011427302,7.868531061606307,0.9237048829206185,-0.9713240667095092,0.14446169807087678
8.46,-7.03550241610082,0.9944491696871127,7.4482994935473155,0.5468608869548165,-0.8018947418350203,0.007788564768084611
8.47,-7.049615929006361,0.5895918474628274,7.697253466873071,-0.13784188940797937,-0.3551408417340377,-0.0792228652300774
8.48,-7.534190648602884,0.6776082090711694,8.172244785921716,-0.28477299200668177,-0.2262372626972676,0.012859860533033993
8.49,-6.569905471512074,1.0262395580170525,6.396119857777649,-0.20597324527422947,-0.2252695842359717,0.31381514692405854
8.5,-6.418124001871186,0.7112271427049234,6.141810427882424,-0.5590967168755956,-0.03212647496963166,0.054487231852278065
8.51,-7.014631689627871,1.1553672251038865,7.379749452792746,-0.10847453809405194,-0.406372132219111,0.12280894886384046
8.52,-7.00204726552743,1.0736632478732049,8.027479984466908,0.49408525249136753,-0.8445302297501474,0.15047180995978213
8.53,-7.5285656209782434,0.9864870641387563,8.123355434958949,0.5776685680091417,-0.8255164022336773,0.07004485982177729
8.54,-7.131825007160752,0.9792819263565424,8.494318124696516,0.25135405843967507,-0.46635525244731013,-0.04511222312419475
8.55,-6.442494286847216,0.8978754570577065,7.0661105528661725,-0.20219938046689975,-0.130906018374941,0.16733649831109004
8.56,-6.7317378733998945,1.0116013399989388,7.138572417308261,-0.38803877269660275,-0.08661226509083844,0.046916411808010164
8.57,-7.331262133395156,1.1052366778247324,8.078516445851632,0.06307296830721074,-0.4351731812761994,0.06747338147316008
8.58,-7.152262768977121,1.0186267681506262,8.05050396902106,0.4700786563240346,-0.7036335408939584,0.07587455296334955
8.59,-6.805972588334486,0.8083336119693839,8.204461945637133,0.43331715215043165,-0.767987966231689,0.03271932211862783
8.6,-6.89742210034581,1.2718497968328164,8.083364151551514,0.07528555031624258,-0.649285563003627,-0.019206224622171822
8.61,-6.720880910117717,0.8148976880251712,7.855526280414927,-0.15223895863834475,-0.5099661459085131,0.13241575322244986
8.62,-6.282935142823048,0.9249313327315232,6.856361771062204,-0.38211866506708253,-0.5524689968830823,0.11936248364770476
8.63,-6.204188515058088,1.195266788237748,7.30622953647497,-0.1499734379098951,-0.6273240971466224,0.12065460621485657
8.64,-6.031341124679855,1.1312647074018183,7.570138052114158,0.14617765664242646,-0.7006143550146683,0.12799151780305745
8.65,-6.491670209348312,1.14903050463692,7.795077796464824,0.32913523394283606,-0.6019595583669779,0.03095727688720175
8.66,-6.509467157300593,1.1096792711265178,8.01037448625091,0.2062445348677812,-0.44578205303923785,-0.014731002529672068
8.67,-6.338996092187192,0.7599749806693865,7.203985802707404,-0.07427042084114863,-0.34761434107454847,0.29725893703110473
8.68,-5.792664129048434,0.8252634765483696,7.115467658166229,-0.13863560290469526,-0.4086800883653396,0.08611081142001922
8.69,-6.013198115186816,1.0611220364491458,7.603341108134056,-0.06328992144931032,-0.5392052252337755,0.05363412375585558
8.7,-6.066484428629126,1.2823948926775735,7.513224587611066,0.14034820117844415,-0.5016345730963141,0.2861073002932717
8.71,-6.244789353871542,1.2474510483575552,7.648480975765646,0.07376786539555052,-0.42713979320749,0.06859686623250875
8.72,-6.2449371737575,1.2897710588719526,8.202657332300321,-0.013921457064062118,-0.20345296401335608,0.006069822234044999
8.73,-6.237648541504156,1.1565677942915285,7.704659330464002,-0.1044462236565368,-0.12892597238326467,0.06653123680038518
8.74,-6.2020173409107135,0.8934306675875237,8.403089099560153,-0.08336435446619798,-0.22921439506972047,0.03754470769932446
8.75,-6.11971372771963,1.0801944837905861,8.215201008776464,0.02040029315595003,-0.40610220558800714,0.03341832070999659
8.76,-5.851636044125047,0.8707721042914209,8.351301419061382,0.0825533766627642,-0.4717686017513484,0.0470858464396679
8.77,-6.154091445834217,1.021538485006473,8.31481512847573,0.07596897423512108,-0.49320593808574814,0.03515436996293402
8.78,-5.889491484667166,1.3727203533440135,8.349721095719104,-0.008276781200497643,-0.3879739823904388,0.032279052391061915
8.79,-5.548786908444061,1.1771874726564282,7.848101998232554,-0.05204635763970193,-0.34834191463667785,0.15387716914149532
8.8,-5.447047784973796,1.522714803424458,7.308457712082941,-0.10760216559955739,-0.43013252352713116,0.11459733743462266
8.81,-5.759078582259943,0.8852641935002354,7.796582796757023,-0.07011336041080851,-0.5040352601237553,0.0007066806752541455
8.82,-5.73835295773435,0.9797422522280144,7.899334044604468,0.026854343272341555,-0.4845731266352616,0.03325703802734558
8.83,-5.530607682757773,1.4872496925340242,8.110428323670785,0.08570107610164554,-0.36609765091680563,0.04240946568139868
8.84,-5.586692290911308,1.61386253826283,8.284625945856364,0.06162008165479243,-0.34533533581892084,0.004874760477502905
8.85,-5.0522473890286985,0.9594803004730598,6.930780953078824,-0.024639603771675976,-0.3696973240555205,0.30102970004300855
8.86,-4.851518667565993,1.437111383061758,7.0150306332364405,-0.10910975161482968,-0.48993020572636803,0.09283326321524815
8.870000000000001,-5.181079176266955,1.2889325668975946,7.766666325730309,-0.1545057456212755,-0.433976790726848,0.04544162162913411
8.88,-5.363208396194103,1.0733103018855437,7.057100770067568,-0.055658792996237466,-0.273559384910072,0.27181508039499425
8.89,-5.145772464737914,1.2477510704307413,7.917978948495829,-0.028400875132020408,-0.1771012635640181,0.05847523025729937
8.9,-5.771518330456159,1.5847725910707633,8.044153722068828,-0.046514939922928496,-0.08529064159888658,0.04813400978906875
8.91,-5.139673184945412,1.090235863230169,7.123891908038787,-0.04001432682326388,-0.21537340590786921,0.37096152447429537
8.92,-5.234185830872767,0.9766443262048691,6.944988391912359,-0.08357158907769277,-0.3000629595426242,0.1520487492202556
8.93,-5.153608457944363,1.4838740812685827,6.785596589011604,-0.09156240979840882,-0.41466864792133007,0.34866993640804717
8.94,-5.33999740011027,0.9903467482470544,6.598996235835287,-0.3271141539941709,-0.45672061017275306,0.17351206236358302
8.95,-5.618004430530635,1.2121558759735906,7.8848605303881145,-0.2695426723051704,-0.3420940790326959,0.07791693567839028
8.96,-5.258794778346363,1.4733337362648915,8.58797844993056,-0.0569557472359982,-0.031290854333070196,0.06420686824434774
8.97,-5.2412160768447515,1.3030430556139416,7.4668619155956675,0.14041789014730063,0.16621283057763092,0.3852096706852349
8.98,-5.062529589262455,1.535152035361155,8.060281243630307,0.15761561927158108,0.1681903340411385,0.11054271426517222
8.99,-5.418181489429017,1.2844428787807314,8.305103730556887,0.08458933299553505,0.07709460777763623,0.16925028364257869
9.0,-5.375484816788764,1.281131782012366,8.0480610183209,-0.025988789859409715,-0.03390378144691317,0.09507043580593937
9.01,-5.136881533218161,1.5045921232307253,8.985265339924634,-0.0442962923763951,-0.08851517851540583,0.04312034548436121
9.02,-5.591803896233493,1.4503827600474377,9.569390848764451,0.06946768054099334,-0.03267082902477566,0.048820900044313637
9.03,-5.459825452196078,1.2818691512641274,9.432552884166318,0.2112397909552906,0.0647422908416053,0.03718576418773639
9.04,-5.380579166989922,1.3458834293292854,9.432490029969246,0.1839890736063987,-0.023909764859359108,0.03810254329671314
9.05,-4.5088440891641035,0.9116099849242336,8.04538241679958,0.060729975426071225,-0.1795414186427219,0.3335138186423328
9.06,-4.395675846423372,1.1552840920167164,7.4693972192801725,-0.02624603699149814,-0.32174873900924217,0.12021331296196495
9.07,-4.894678225990812,1.3896137678654588,8.2911934099617,-0.0900927475388748,-0.3751520679582845,0.050871446311055224
9.08,-5.1617015299793945,1.4872339343507097,8.989300598787699,-0.02298361365422965,-0.28806382196438635,0.028745615435253943
9.09,-4.780939123229945,1.1465635424810703,7.684183188114732,0.04717222522199463,-0.1977500922833351,0.34907262497661956
9.1,-4.807432332160113,1.1974808081655939,6.581158797029033,0.0011774063334217856,-0.22604879994644153,0.16793867032620471
9.11,-5.215563161887616,1.4777313090765345,8.093001864853166,-0.04107066084861026,-0.41434052378880953,0.0759957304165179
9.12,-4.857690239913471,1.4313252646240986,7.118710185227243,-0.08967369610750454,-0.5384023580118127,0.16690868361820727
9.13,-4.785665205011756,1.2007110628937308,6.679903126824181,-0.2212881954651901,-0.6446040318465266,0.351027433508443
9.14,-4.912769908447935,0.8443260170597607,7.713898799697535,-0.4224901614894276,-0.6734141132296663,0.17611897279141972
9.15,-5.17075202239833,1.310400959489275,8.574246047179297,-0.3145521428000372,-0.3201151698414523,0.13320863786223988
9.16,-5.015139780108715,1.6520449859585944,8.48219650869484,-0.032424003250336716,-0.07568719332253593,0.2235874110971525
9.17,-4.952986663003451,1.777263791171972,8.959490352700394,-0.09268169882383726,-0.16525410983547142,0.053021918251071574
9.18,-5.320845821647724,1.445190454474576,9.142199233604781,-0.03941369043170999,-0.18200767195155082,0.056999227961978156
9.19,-4.99310299522235,1.1656812085237331,8.659133683092426,-0.09756193088815496,-0.25750554059240294,0.24066713056349218
9.2,-5.001680014677304,1.4588528147623097,8.185857082369754,-0.5063031320652394,-0.7639422192249381,0.13320201704835488
9.21,-4.813820554998497,1.4392494132471165,9.027124188704088,-0.5099300014183491,-0.6593840528133718,0.15109399173702023
9.22,-4.771905316744096,1.3569884578475122,8.954675678074492,-0.08842391314217304,-0.23382701878163292,0.13022573451992886
9.23,-4.9939721063012,1.4601461500624133,9.552879984771597,0.31828970685531516,0.1515683420467829,0.02411675246174412
9.24,-4.955173061291948,1.3485874043116866,9.917759204945176,0.419367088743389,0.2404749083947248,-0.011032359218938134
9.25,-4.6426550822009505,1.5988755105543253,9.847408994875856,0.29453783313700616,0.054878938791368716,-0.034212063249008336
9.26,-4.278877399959191,1.166879579286222,9.899227047196183,0.07965779862285328,-0.2546287813306929,-0.011984046082318484
9.27,-4.891790183803508,1.2650551417839127,9.67992373237366,-0.0548056845464036,-0.38749415982779045,0.04103499749668845
9.28,-4.666142081716589,1.278797281577225,9.55505344241495,0.09378762346611266,-0.3276192726551066,0.04014136745740011
9.29,-4.617445961024709,1.244608709091224,9.156240631238735,0.16704348544422787,-0.2733842518433839,0.021912901670554482
9.3,-4.281859226015932,1.278571710607319,8.856673442331784,0.17038145015933803,-0.35654664956939386,0.0034786764915397247
9.31,-4.485835835585399,1.213750458618981,8.352271089200004,0.1305651374706701,-0.5462803310425746,0.2243667314002176
9.32,-4.232838661998191,1.2897580139474678,8.321739699452374,-0.06346189736424639,-0.7704149220751779,0.08703882821029177
9.33,-3.772744692954083,1.0686882476900308,7.257343084280041,-0.20287142506421452,-0.8930489680305105,0.26077866472267075
9.34,-4.336120724280875,1.1191502235332214,7.401968002445113,-0.48688586603496925,-1.0217336933850343,0.18319434414043256
9.35,-3.9805691397399716,1.43840203705536,8.074234425042496,-0.48565584995687616,-0.8621184479730175,0.11420668075910269
9.36,-4.24969403805625,1.3129090008749231,8.096947785378278,-0.10313337999590105,-0.3213821708845959,0.0829623491773183
9.37,-4.730502292478485,1.2880837483201633,8.699920913591427,-0.08307771044451287,-0.22165916470806618,0.24453179611063935
9.38,-4.138651865524903,1.1609295462924503,8.908064180844038,-0.7195732287542432,-0.8939470951103169,0.1830486243215389
9.39,-3.739394011248458,1.4107200662876431,8.238030959511985,-1.2401277093733059,-1.4219685022725204,0.34342869148674504
9.4,-3.8885772801924614,0.9339130053842398,7.309812404620875,-1.746695071192088,-1.917599055408834,0.41406521355502846
9.41,-3.73371902760004,1.176656832020452,7.446089077545887,-1.584718937732251,-1.747364271160175,0.3829707855134249
9.42,-3.862431672922292,1.3430756377372226,7.508619886646898,-0.91300944852133,-1.000566542859534,0.42567057785555595
9.43,-3.715987272865712,1.1819066036039982,7.354234161610191,-0.026136728363461502,-0.04156629865588046,0.30467647953407495
9.44,-3.883170736304866,1.2916126915886927,7.582774738342607,0.7203809931316766,0.640334618460814,0.1568243818077096
9.45,-4.212000929983483,1.107127400164054,8.743483822279595,1.03244679143431,0.4219153288776583,0.14341989445362652
9.46,-4.052048739240355,1.3282928400363894,9.638912512173057,0.8064113506609627,0.4717520990669477,0.056620082908383496
9.47,-3.6478939396120498,0.8964232501858138,8.491215480074645,0.44599127462096744,0.11306207994510804,0.07706457162604073
9.48,-3.8533625681199712,1.3760857643945144,8.318670085347788,0.19867053522291456,-0.8840564217862716,0.21760986386707454
9.49,-3.5476454649122675,0.8946329657385166,8.514826342720674,0.39313779242255,-0.6847830322005756,0.2366630150100631
9.5,-3.873558127764524,1.4793628171940467,8.726814825689006,0.6585339870515002,0.27148030825602926,0.09329556918179638
9.51,-2.9458360235555614,1.3720482894681396,7.6494679900503435,0.7001843913863018,0.4878305135753546,0.10200496184365399
9.52,-3.1249985311319883,0.8541143002659098,8.381026827825181,0.7266421818529739,-0.49633074229031077,0.15415773571985208
9.53,-3.2989111700716767,0.8742413067382011,7.888971615372833,0.30323206921819795,-1.2642959310520243,0.20432732032824424
9.54,-3.031036292356884,1.1450283339985363,7.683466341413181,-0.42277482805916594,-2.0671351207236897,0.2429515232637326
9.55,-3.35062838822833,1.2664022601839187,7.900314372511954,-0.6880955544124943,-1.6971389240618646,0.2654963612395789
9.56,-2.9490569103673483,1.3161539465920409,8.42558894710047,-0.988668625658619,-1.632680147932953,0.2576536813755156
9.57,-2.9707146484782196,1.0367192504538436,8.525765260225661,-0.6916336939131241,-0.9992866253518948,0.284916939779898
9.58,-2.6747431442999825,1.0644507279287356,8.609553839563773,-0.06173846937411566,0.1396445394640818,0.33444956448711644
9.59,-2.6643848721103267,1.2125041171124553,7.2143827435537435,0.4345188228000523,0.6223750790665256,0.17565303648867103
9.6,-3.473084304171091,1.4284602570351477,8.957672848024544,0.7473067223645408,0.6803159279215466,0.13077838387919583
9.61,-2.910762294856514,1.419111655725478,7.91420480479454,0.7255175534849925,0.38765603652039016,0.09148545491485227
9.62,-2.8523358174606837,1.2652719268064223,7.830598005731616,0.517281133222676,-0.6116397931787139,0.15002466174090762
9.63,-2.6594167359530934,1.171315930322089,8.034046534609264,0.6464404303621819,-0.3978038964788539,0.2109146298669351
9.64,-2.676258741508548,1.2055296779805742,8.315182781323823,0.4699764831700803,-0.07890471005896513,0.14126783999739626
9.65,-3.048788006816828,1.4140392314103365,8.892816483355931,0.49496708732346334,0.6713153168214666,0.09244540907206437
9.66,-3.45350523593602,1.7008733663089235,10.493164221651726,0.6805433003091574,1.3409314658650675,0.06415336715478773
9.67,-3.1511061024493756,1.884671543626161,8.64754013034894,0.7798158950568563,1.001200194047085,0.018370320023756596
9.68,-2.583356725778808,1.5997895370681254,7.7230279019208234,0.619448760284462,-0.4312614213970205,0.19000341116239644
9.69,-2.3835637927533044,1.363956487309096,7.949691379497782,0.4232003906554343,-1.0032037347031681,0.22866175322711207
9.7,-2.8591414830362103,1.7327039930932753,7.724541861533586,-0.14842861392229162,-1.0206517616279123,0.20201202171990942
9.71,-2.475528162174338,1.5623969836218923,8.415726074720439,-0.12295029676719552,-0.24113058025947454,0.2378382841648635
9.72,-2.9164268094570094,1.8703924222632036,9.139332167507526,0.3294343973814653,0.8610983023182,0.12526399212745895
9.73,-2.506003184338787,1.795625720885083,7.512139412644863,0.6235460665035103,0.9950363971164945,0.05882601174586777
9.74,-2.9572525264285807,2.016453004131869,8.860110686096656,0.6088246269676527,0.24162570039619738,0.10782408908751087
9.75,-2.4182782609747133,1.963483890371763,8.39412395270075,0.24300779860157123,-0.41318044582130264,0.18196523112912447
9.76,-2.94893895866649,1.631486761173343,7.999522862826146,-0.5938423778169495,-1.262005231091537,0.25042869094534964
9.77,-2.6195644908677513,1.5646727653997123,8.512405035145608,-0.632979306811747,-1.044140828903988,0.3180125325885436
9.78,-2.8836611326351025,1.6530894639890077,8.583260996744032,-0.14971498798753005,-0.2825556468348606,0.19451524788566033
9.79,-2.7965031733675,1.98430403995164,9.09040142397858,0.32887062261718797,0.39965005998054665,0.17470977282758357
9.8,-2.8266210745658147,2.094585416739945,10.429518045429251,0.7490779923727033,1.079563479705149,0.10776765141313903
9.81,-3.092856154351522,1.7732798487864814,8.682230612257166,0.7362959043795854,0.9969919540645268,0.05592133165877844
9.82,-3.1348047336020173,1.8597470109980956,9.282142118133027,0.36405791291203415,0.15728353158514433,0.10294069495904853
9.83,-2.6224081041603506,1.9551066053300106,8.68346398139468,-0.1507931063326748,-0.5644269661414297,0.17568447757360742
9.84,-2.82672332922243,1.796772719561663,8.739016097570376,-0.763830433238244,-1.2911751817940709,0.1927699448272695
9.85,-2.6434570648960083,2.1032022589839454,8.904211899085965,-0.661919158452813,-1.1156646583767102,0.285988725409047
9.86,-2.612288317414915,1.874655713144056,8.796458405902811,0.028512222935442377,-0.2869119517728261,0.34319526032044445
9.870000000000001,-2.3628159860047933,2.092469753949662,8.34921959824262,0.47576834797618467,0.47239053353212757,0.13718387117069072
9.88,-2.894956439120137,2.0603094194093,9.711537388717533,0.6610898926754157,0.7846700453735759,0.10948558923176063
9.89,-2.564392632289144,2.3267187758694243,10.327568376269832,0.68345763460059,0.9149504718550118,0.05931665126383988
9.9,-2.727212799510623,2.3074668408109726,10.088977635817471,0.37379680129496834,0.4527333441564186,0.12718302782783275
9.91,-2.759645866379437,2.1973448887585043,11.131522382228924,0.27889246445807814,0.338633264389771,0.10582055051366765
9.92,-3.4211038491789263,2.1419432401204133,10.935375217863887,0.4477498030298649,0.5068134292943905,0.10944985582754549
9.93,-2.8474990336849606,2.580023792961444,11.261155216029564,0.6067781291977802,0.7860225705565217,0.13537365419215033
9.94,-3.0990901050703354,2.6720137891560225,11.655028174577762,0.5901492777813963,0.9675941645210252,0.030970763451281264
9.95,-2.894211248668072,2.3756080878541916,10.957386320651484,0.4769143876818784,0.9348128988043916,0.0738373126210953
9.96,-2.9759538802645245,2.390949202071905,10.740089257451231,0.009215557508184756,0.2751408282182373,0.11132313152725656
9.97,-3.0225431265540768,2.099880151155606,10.832139220589639,-0.24100844205253436,0.03152211916215873,0.11650681965120192
9.98,-3.0481454438507822,2.3105206822240114,10.859511878919827,-0.12376493544878163,0.3670670741632344,0.09037981551887035
9.99,-2.7629070035333854,2.0025967139998895,9.595501034346976,-0.2651755842233405,0.2236951431352679,0.15739231352671262
10.0,-2.9843550381948916,1.9301987133748726,9.252121941600603,-0.7066852958892864,-0.5579341128984732,0.2765901303728345
10.01,-2.7354563655277424,2.0419896004037743,8.850731926254197,-0.6794852554335595,-0.39654935431066135,0.23617692038157145
10.02,-2.914720432810437,2.6699318410711204,8.98378345455556,-0.6559148607975108,-0.18274035573346514,0.2603747448116056
10.03,-3.1217981683839864,2.000368308226044,9.320167712176632,-0.535017181897877,0.3505291984563688,0.1628950549546044
10.04,-2.9699379285784415,2.1251180952435083,8.966364506447169,-0.6810869089353847,-0.1573191657462038,0.21441885982742256
10.05,-2.817405421804131,2.15002237146433,9.316043537571005,-0.687942619834376,-0.22776365641974752,0.2567693859794413
10.06,-3.4599305462360608,2.2839890762684556,9.364305473040663,-0.44725012455306623,0.3256089031604519,0.19219512255753188
10.07,-3.209648686941495,2.2124011260001835,10.30748713711958,-0.20880897318756958,0.814136937549476,0.13261751854065268
10.08,-3.5873019277966773,2.2070369859671186,11.553028626816193,-0.06767216575980281,1.0847996054190812,0.040243689771377975
10.09,-2.69469091711574,1.8363422254047017,9.590452611045368,-0.24927962943096799,0.6779667584522412,0.11658725552127355
10.1,-3.1826931859902374,2.1413298369724765,9.641466285819824,-0.49667831746347774,-0.394145522146044,0.19182909958965927
10.11,-2.841926210438192,2.2324356223009385,9.712641891944774,-0.46734590329284303,-0.5172187197683924,0.2421574980292981
10.12,-3.083441935065917,1.863282431685122,9.45220199394735,-0.2393822540795687,0.0049782193927647295,0.18496285220488387
10.13,-3.5016321527570713,1.9507956851923942,10.124916519051927,-0.0939886060754685,0.7396215006857253,0.07766428365277658
10.14,-3.715678239443198,2.0150339593176865,11.210655342409174,0.01989783517156106,1.1665634983495208,0.011334666099261509
10.15,-2.9931713772680117,1.74891393657265,9.67588401455693,-0.14635941032706495,0.7630635420624429,0.11922928767547136
10.16,-2.78750665577951,1.6107525560834375,9.76419065978704,-0.4675801643622887,-0.22758874747682717,0.15005751929226238
10.17,-3.382874537346615,1.7780739862666122,10.147494642561044,-0.5879515868182082,-0.5546383824715008,0.15681686499395828
10.18,-3.315514937718162,1.9492247986305435,10.128185222514015,-0.37638342198082453,-0.14280082971361746,0.15636828292923816
10.19,-3.607469461864916,1.9409742682176532,10.344222882324255,-0.1660699561058822,0.4829284666916242,0.045355301462884356
10.2,-3.498907366892867,1.9782406004122994,11.235496090199433,-0.04840770744946924,0.7883513164446397,-0.01437210769387975
10.21,-3.199003243888412,1.4470345208210218,9.985332203836768,-0.1731373538988283,0.46020529263112936,0.10935677348153826
10.22,-3.16017007125979,1.7550819275234169,9.979374453268449,-0.6782541261717462,-0.4752392638855109,0.16280408816928119
10.23,-3.185104755303365,1.387328683693439,9.609886589484152,-1.007724208329223,-1.0484663548987776,0.26203720366501126
10.24,-3.2152539612814626,1.7129605798416447,8.776868177379722,-1.6710867568048926,-1.7402861098101674,0.31546005182398096
10.25,-2.9478141038417407,1.4315484358310564,8.756642799382153,-1.5084557082842647,-1.3364556751277057,0.30548835873270574
10.26,-3.0574185141514034,1.747748773770759,8.34948011533108,-0.8650931621977076,-0.5113729836629465,0.2715721823254372
10.27,-3.055159844031061,1.4264989668693722,7.791698097224111,-0.32981598421316677,-0.18211591900057889,0.2582521392508754
10.28,-2.9392971645284653,1.4688219440085482,7.995634733519102,-0.31489662763283477,-0.9080611032750038,0.2438498367654226
10.29,-2.9446060106092595,1.3507561464040527,8.296130191523128,-0.4988514683860836,-1.4229016369132772,0.32219268881912155
10.3,-2.5542805641986277,1.119706082030972,8.425547750726503,-1.1055032557017008,-2.357784564293192,0.3464476872952369
10.31,-3.0394964242219453,1.149925096581442,8.046216967400023,-1.2355883504391745,-2.2047161519004916,0.34496882612272495
10.32,-2.657744387957283,1.3461189206335662,8.17629365084204,-0.8844548135948284,-1.3002157327087447,0.3207953438599883
10.33,-2.5921993067000795,1.1945291826342723,8.430645223859065,-0.24528188054679298,-0.09400709938385679,0.2701438153118932
10.34,-3.0404144035910816,1.2508865659645607,8.935141790512118,0.42512780331763617,1.0920197468197521,0.11559075644042376
10.35,-2.8665345401994955,1.4913951983336948,10.537752436114184,0.9148775668061973,1.5205509056660904,0.05162365684464148
10.36,-3.084706660335449,1.3431094641259778,10.860112319199821,1.2138450630671007,1.4163120840463854,0.050025392990722374
10.37,-2.5111156943666586,1.13634952121144,8.867126029118701,1.1625625550424412,0.838086135753801,0.09208790950048545
10.38,-2.2071895418582246,1.1580320358126763,8.765232372003313,0.9592851285823087,-0.39421408027805044,0.11665593993293305
10.39,-2.271285019362661,1.1371376497181986,9.405184854686798,0.7312660497672263,-0.6459210221486493,0.07976041643816977
10.4,-2.6248247347711757,1.1080166238929765,9.563489700730129,0.7187209978494649,-0.13457783775568277,0.06515555228414151
10.41,-2.9052762944487345,1.2939688801176108,10.253675443261635,0.7944837185575254,0.6065598016274321,0.02447458312043369
10.42,-2.876764569304058,1.3966355548107778,10.942295734808535,0.7174466905662136,1.0307065398625586,0.0412008933577129
10.43,-3.0403393542651584,1.555627886752833,11.381550966281367,0.4803953608074429,1.0931813445966465,0.0019008492223896245
10.44,-2.644112713326895,1.2329211797254225,11.606073423458426,0.31584108089065627,0.8105669407276114,-0.01181027424414402
10.45,-2.2758668359510783,1.5318831937004216,9.904210348316388,0.03682872644062898,0.18544730808446425,0.12281684611217158
10.46,-2.72656745995047,1.2945966838874965,10.364929152177883,-0.23923233692544588,-0.49899771549496275,0.1524062640215279
10.47,-2.7647077762317287,1.2322790301553774,9.832604836290733,-0.2632409978792199,-0.39073225103236914,0.15420481413849696
10.48,-2.988334450027265,1.5253646627386235,10.385039820663875,-0.059593409354629784,0.08519744761573304,0.08410164060928446
10.49,-2.8330039660531248,1.5446000629039784,10.560641264629517,0.1152212101236087,0.5103239019565521,0.01058961556476036
10.5,-2.6775200953210643,1.925257280456124,10.75078123104124,0.20446457125865775,0.49994852574904136,-0.023806541957114007
10.51,-2.885222394262409,1.341404744253853,9.894811964067262,-0.0739704988621679,0.03016550510469911,0.13228749505507814
10.52,-2.901493557164682,0.854807457594138,9.83191871526497,-0.8447748617467897,-0.8265275075670494,0.13090035398950195
10.53,-2.8251379461018806,1.4602421948986766,9.233046569187227,-1.4596414112974267,-1.5861804932332009,0.338359100807017
10.54,-2.4641348682109236,1.1717480980196286,8.10434338874184,-2.069078584861698,-2.17404711439898,0.37728303267804353
