t,ax,ay,az,wx,wy,wz
302.53,-0.06414700260568673,-0.1578691098669368,9.567307983285614,0.007389735299342979,0.06529292664238101,-0.026478052930377857
302.54,-0.10053110067220217,0.19386250291587703,9.81949709211271,-0.007604219046100238,-0.012984382047797824,-0.021666389789267135
302.55,0.20019713388014887,-0.10516630701168814,9.724920142088918,-0.019057369107191854,0.005307409460054196,0.01712492499145693
302.56,0.06329734228212142,-0.23505284021564035,9.580541407490413,-0.03311753678990537,-0.017159229931872633,-0.010147616841583313
302.57,-0.07265539958032398,0.24088854626343706,10.399140360610968,-0.025010462704295158,-0.023441107096694714,0.008598707668116622
302.58,-0.03479911872410883,-0.1625573942173942,10.807406135518624,0.029226535512083488,0.020173272159023654,-0.00417630266110496
302.59,0.37899129018357886,-0.026883213739287846,11.04002025824763,0.0039010069319589595,-0.03351749128418806,-0.00999522761127084
302.6,-0.39845358129270786,0.20652530838017405,10.802627042916592,0.023806687158800032,0.0065620571087521545,-0.01291466688027783
302.61,-0.3186157485556951,-0.09871420037684622,10.48726987674501,-0.021499215732699882,0.05119672827526536,-0.010293978001451485
302.62,-0.14138202960864837,0.08397322641374601,10.873811171523391,-0.010262266564245648,-0.01622960501985129,0.02477143247289473
302.63,-0.2437396006881853,-0.07263734446470801,9.904877210314224,-0.0013072144366150548,-0.0594279296768707,0.001550154765921468
302.64,0.11074599617129792,-0.2779160396243399,10.500738551578953,0.011074774036816714,-0.030749485516285657,0.04172946637655336
302.65,0.027634532480028996,0.07192993121355495,10.623388958618216,-0.021917204512389984,0.004491622376998165,-0.0005023494089490101
302.66,0.026618748617673046,-0.19181152850309433,10.55848310902413,0.016850128216800264,0.009865675151944761,-0.01182525521065566
302.67,0.1771291006674701,-0.08379751152169054,10.859191103677658,0.00997399980144272,-0.016351521178488374,-0.0008078194008125097
302.68,0.18312220186086142,-0.11050072003483519,10.689356116381399,0.00800357580092624,0.015456175943602535,0.007259710107333443
302.69,0.15769985918417836,-0.1706869072667163,10.51395605725038,0.020871068641647575,0.034244230484751885,-0.05037740076425508
302.7,0.2056699683654831,-0.04307232771972528,10.016683902672339,0.055182348933121156,-0.028578436998152226,0.03281464904183273
302.71,0.10738998507680568,-0.2521986417547463,10.066486438223825,-0.0032029829825448216,0.012131538510639164,0.03777549545713136
302.72,-0.16781051863669286,0.2524447628318766,10.468725417590846,0.005377425504209035,-0.020975740536286293,0.022582066570416878
302.73,0.1039628875325307,0.03910363770523289,10.094055572936428,-0.0060690436418280435,-0.016887593326253593,-0.00331165520737955
302.74,-0.04711698000749524,0.28516979413802085,10.312339858673974,0.010419476990884875,-0.011716317783143824,0.0230380169191125
302.75,-0.011455252908830984,0.14808484857720794,10.06298613936242,-0.013536839950277954,0.0025676426539590316,-0.010937464501089003
302.76,-0.10739526318563443,-0.1203097203775506,9.979754065586361,0.00477293630729406,-0.01611315744056594,0.012200823063171372
302.77,0.011627475657652488,-0.1696376081388022,10.19710588760366,0.02443968445133798,-0.022666459680705534,-0.010947254006917428
302.78,0.09378790514036955,0.0801358774789914,9.865859665852398,-0.002836998253493888,-0.013079568013813018,0.019241934050367643
302.79,0.161744154053172,-0.10049286301921195,10.0183594692808,0.013914169958822272,0.016316287754653873,0.011647697595780365
302.8,-0.08515981085607963,-0.054284284008940226,10.092652481168635,0.04209966930906753,-0.005255946388443908,-0.004780375398654531
302.81,0.060419784695879566,0.28760639268879684,10.15402398975332,0.013643840410255688,-0.013509458847696994,0.0037468800336936253
302.82,0.1067948869212019,0.09336005980864127,10.33367393394869,0.03575500401253189,-0.02091907088412022,0.0181767816334543
302.83,0.1358709210749976,0.10686874398752805,9.869960100306038,0.029794432082144547,-0.03849341528077548,0.004537240468927291
302.84,-0.008089448801792095,0.1718216823379391,9.891682505290065,0.03058800637677328,0.04023152412463986,0.026400914772043916
302.85,-0.14197365429070816,0.07896988310005121,10.062143697518653,0.02068293748870673,0.0003821998762799249,0.016033720706334294
302.86,0.170072910101142,0.02319387036480482,10.071488170478665,-0.006282721010125018,-0.011568814632056742,-0.012113697637236253
302.87,-0.0026357403980624963,-0.2480293998814758,10.032253354409391,-0.0004808695795456397,-0.008930341528679275,0.015901656138037366
302.88,-0.009865365612756093,0.022237613546902013,9.76008163060896,0.009123232639158258,-0.0035980418074628697,-0.018845103064108203
302.89,0.22660777146545932,-0.16643705023999839,9.963099931575053,0.028984573988925677,-0.014424430937567925,0.010268696310606366
302.9,0.08040822601139323,0.2151949172213427,9.996094382629202,0.03257062597148911,0.03189069381558403,-0.005583384464576416
302.91,-0.09971425118141718,-0.08276426611001494,9.555100905046043,-0.007983302269339833,-0.01675486219346145,0.0369009256931938
302.92,-0.021565511325247574,-0.24927145117686555,9.761930380550291,-0.03550533761906607,-0.03924007093994282,0.023071261623812282
302.93,-0.10284432192154622,0.11030706702771217,9.49415139257066,0.005114091292755719,0.021379390378237186,0.0046963144733562605
302.94,0.14338255358735197,0.2969528047408378,9.34422652069448,0.018977482415252385,-0.016055850983825247,-0.015123543705874464
302.95,0.30612155197551244,0.03760328131312748,9.721575451644002,-0.03840644102265017,-0.040770621847073765,0.0006118520543615566
302.96,-0.16070174935432738,-0.10235248848429032,9.710602559939492,0.019603859352265645,-0.00610662425418321,0.009948166491672671
302.97,0.016917201899669523,-0.04992049603793768,9.539233707198601,0.02243245353908008,-0.018952418894972168,-0.015878787504122326
302.98,0.3552000632876869,-0.19655452559274386,10.031517729992126,-0.03937738729254892,0.02701941605564762,-0.0052588123878637835
302.99,-0.047384462283540034,-0.004785865774140081,9.649852239097997,-0.02847427971153934,0.010017053514978122,-0.004321909227566753
303.0,0.290359000940947,-0.05107716409880046,9.81562341913961,0.013496706398249205,0.03156823576170458,0.0077588919953160895
303.01,-0.05943444378168791,0.03318689597236673,9.870716711274207,-0.0053757091317338,0.01423866516613652,0.01726330068460974
303.02,0.052436617863223144,-0.1595405818266912,10.045759744072962,-0.005010355261163934,0.033829092101088004,0.008743339261567618
303.03,0.14245003693070749,0.12146015672176715,9.625432853257141,-0.012950077982824996,-0.008969181488665698,0.013885916169896274
303.04,-0.07282567983823496,-0.038449444951810324,9.59900284064445,0.010031853254608526,-0.005581238214633789,0.014753159755375259
303.05,0.05074991613001029,0.03211419218831133,9.980329859192796,-0.016462492297706022,0.00017183127344153632,0.012782529420203102
303.06,0.06423284436805488,0.33880810899086405,9.884062712449614,0.01078077242272856,0.009584533450806444,-0.0024022196738517467
303.07,-0.09583107611427996,0.04109376058599847,9.978387066403979,-0.024161508043363852,-0.0014048059567952193,-0.01493591602706235
303.08,-0.062327340496348436,0.16464694096811155,9.879509237486399,0.047063849449794797,-0.02129845287797144,0.005920524220554002
303.09,0.18915913237812237,-0.01046063321494746,9.855674629847954,-0.00535101679461479,0.0001295592234048256,-0.02616901707105743
303.1,-0.05238464285765907,0.025481473078704794,9.778326232671331,-0.010964943282849433,-0.0026612385142202937,0.012699466761094126
303.11,0.37110092087236723,0.24454177186054246,9.444891577847574,0.01134184573625505,-0.01907170721705438,0.016034665828731445
303.12,-0.2355160416584022,0.37707005306271546,9.728343395263021,0.005654580893424561,-0.01818465295317672,0.04296911217209812
303.13,-0.13745804886767532,-0.07178024166001362,9.756937192972128,-0.0017810335072832393,0.01969739739011519,-0.024386150035826597
303.14,0.0940066617012807,0.054738040909501455,9.88120860594269,-2.955479244551645e-05,-0.00100422166018514,0.004730510724962424
303.15,0.16613822645189932,-0.19342162562839882,9.80533159594663,0.0212197398360323,-0.00231716069794768,0.032515918937599045
303.16,-0.41377465090757337,-0.10396396322458545,9.240264841443421,0.007995398229689301,-0.014458453784286313,-0.015937300622126928
303.17,0.18465821856479253,-0.08488772947089793,9.633043939317357,-0.009893871745093815,0.013862811872533576,0.0375762229088729
303.18,0.13340535975205153,0.1426543808355616,9.645551908302142,-0.0017216670142556558,-0.023481153980551343,-0.029755507009709945
303.19,-0.09183273067954506,-0.15111215409438145,10.118593536607573,0.021867772804089643,-0.0009799457958095412,-0.016704004374760738
303.2,0.052448514803599695,-0.19731911367117033,9.880419039778888,-0.00871439927151994,0.01109663446842198,0.0062613640781341824
303.21,-0.11512493913339085,-0.23200420705222968,9.833897251198465,9.14608845212102e-05,0.0012329346136129558,-0.010851523649958356
303.22,0.41606778926244925,0.03329797960338968,9.660619935034386,0.013256506116168942,-0.015461062315046953,0.006445931168767167
303.23,-0.21463553772626132,-0.4802644789697058,9.770623354475182,-0.029543559492774894,-0.0034988024745879983,0.016399497574640567
303.24,-0.1681854047644988,0.272268926193666,9.613435002844593,-0.015481961429109145,-0.05664212817429169,0.018346727879647508
303.25,0.001373607119498768,-0.018585689253292598,9.972514911021454,-0.020703164113811436,0.008761133515838543,0.00623195378484444
303.26,-0.11222510721744665,-0.16223082733929584,9.600050756143522,-0.019452395564924816,0.0016892563691166586,0.005411437325052886
303.27,-0.10237383040269608,0.027866114569749884,9.874263340692156,-0.02310548129951922,0.02210729037000243,-0.004295675207934011
303.28,-0.11651368516099028,0.09613551560666432,9.881081733632056,-0.018932527990294483,0.015832105454120716,-0.028522826451705778
303.29,0.21240666828021312,0.028020314375325765,9.9062570294836,0.002502253082834172,0.005123983022741673,-0.017296597842055637
303.3,-0.042462359741611076,-0.14846257504686058,9.85623785260391,-0.007929279588991117,0.0007610867726397187,0.013304661311380679
303.31,-0.22378261929350632,0.10357537848252622,9.552363026423356,0.06048450784992437,-0.01683022287572773,0.0006162575301924173
303.32,-0.06981328895647099,-0.007420972084455885,9.883837089518826,-0.018367416113385607,0.01527033816078053,-0.00630267351364987
303.33,0.20386316559392795,-0.016437106338439988,9.95247833484855,0.014715893142241233,-0.0028676821347050686,-0.023941132705790118
303.34,-0.022742963265595047,0.07274979661866061,9.518561442996766,-0.02102386238940613,0.010166477471281056,-0.002436514318534633
303.35,0.18836022597101218,0.23004326150526505,9.658431271051153,0.0020007980775812975,-0.008281521835579722,-0.027556681586479895
303.36,-0.09672006373359904,-0.15563383073686682,9.825619103559722,0.042598837503227745,-0.0012807327537043011,-0.003520793693358101
303.37,-0.03848390244475309,0.022873883514206578,9.65236818531436,-0.01393391935073394,0.00448576042245684,-0.019874649898713105
303.38,0.1018940158052459,0.26565413203367905,9.658992706554868,0.0016281317196706713,-0.014860626013447998,-0.0042229201532791
303.39,-0.24203255305756963,0.2573657191693997,9.599999534339094,-0.013342658795445642,0.013469763913926474,-0.005687796148602266
303.4,-0.05124882663914632,0.11242733098141736,9.691863330140704,-0.004514898425693813,-0.02168421662416557,-0.01623387732112093
303.41,-0.06784420841673111,-0.09939862725198438,10.105598108432606,-0.007156557517785823,0.05536480030116374,-0.019898669476231177
303.42,-0.26707257193467,-0.08339309712534355,9.483485449886324,0.015717384639419657,-0.006335327457214541,0.023879061912937993
303.43,-0.29050371789639035,-0.15794368032148526,9.690178421129627,0.015357671590481509,-0.006046642604575407,0.03776842312550751
303.44,0.2131874031935407,0.025306598904208312,9.96874845072245,0.01613129606214039,-0.018762663408289512,0.0010571064623087205
303.45,-0.19206685271410756,0.2956197567786731,9.636133382798171,0.015262141660259493,0.013115545065576177,0.000742142447902245
303.46,-0.35888836216788045,0.22802235633959614,9.324086746520194,0.0077965197784361125,0.01830335251959335,0.005977148342737788
303.47,-0.209223969488408,0.1072029420461513,9.413145511146137,-0.017327422422343912,-0.006741192109481299,-0.02278956714998832
303.48,0.03512749593213354,-0.2590356417124393,9.540120304636718,-0.004976210222551328,0.013784279872529866,0.009696629997788251
303.49,0.17909680303098074,-0.0010777691244881187,9.781362299143321,0.009814718252322881,0.02097530171586344,0.007333364234377808
303.5,0.01874837123228159,-0.14721403108063738,9.906579000557267,0.01026390231231206,-0.01956664708220244,-0.003563026352301173
303.51,-0.06332374511116833,-0.02937074136122772,9.440220410915591,0.009843972770266628,0.03136993786738847,0.01128573169552172
303.52,-0.10522107623887363,-0.151366174290019,9.781674343453089,0.012788211920168668,0.01555921294691636,0.011405798135570834
303.53,-0.09895370131553523,0.11002943638657983,9.905053385623846,-0.0153061543221208,0.018505229465081537,-0.002958495649533654
303.54,0.015330837819116495,-0.11622905655973792,9.616243879870254,-0.004183441646409646,-0.02453275151137869,-0.04343717831677029
303.55,-0.10661459928767265,-0.2987978264631197,9.972884689419171,0.009046532148706782,-0.015188884354439394,-0.006855415718226225
303.56,-0.11931389579472904,0.09021919205289229,9.917362699464958,-0.010659267966825417,-0.010282673118037567,0.021866747210864217
303.57,-0.033582702750635435,0.025626810907615146,9.968464912808392,-0.03195604524204367,0.013714008825699902,0.014072240843209512
303.58,0.037776225622841095,0.01595858336475132,9.824333925504853,-0.03552930434229168,0.011005700165525746,-0.023543640230463295
303.59,-0.14034705219005247,-0.2265487947774853,9.832094843208177,-0.008888022424572782,-0.004396655914811048,0.012199161527855332
303.6,-0.038812178380248544,0.4261921640618943,9.84902168475215,-0.019010581556695886,-0.0017953351787977855,0.02610708382045944
303.61,-0.3018298145298756,0.1776513833095428,9.871577689142725,-0.01678749086371345,-0.007595893715221325,0.030540835777259606
303.62,0.2357918060288405,0.11571571679024906,9.993849391435823,0.0010477243477333984,0.018326822619130496,-0.0127452079704005
303.63,0.04704115301164746,0.24680197241111876,9.566119674389483,0.028534348198068687,-0.017906925768531368,-0.02457268027978867
303.64,0.06836670084329016,-0.08931761954470503,9.861452467748904,-0.023895914749551776,0.02178302833507874,0.030710079722767035
303.65,-0.14388285089804753,-0.08428565141126478,9.65645341583637,-0.02868655948581711,-0.008159655867887926,0.01797671457744627
303.66,0.21403419082340613,0.25739533762371297,9.956551884939508,-0.024112636305383895,0.04115201869276994,-0.014021640072911878
303.67,0.3558162021961661,0.37517462958127373,10.010973682356505,-0.0009460622331161914,-0.00295949359967428,-0.021134010849009434
303.68,0.25116040786364363,0.005339608635892899,9.758480162900401,0.0013203582311057346,-0.010681793511278025,-0.019679103828889963
303.69,-0.0483814285011483,-0.21805380528723264,9.780063837606658,-0.002505260832159116,0.013539865033067497,-0.024505764637433775
303.7,-0.09312899676896695,-0.12472002608270583,9.715217345757642,-0.008340966103714154,0.004185623120021174,0.0016197574607779263
303.71,-0.03604908809750838,-0.06640505534133055,9.501097619320642,-0.009376142637825272,-0.02306311337251776,-0.019653931554386876
303.72,0.11414035656587908,-0.24578485742542222,9.935665691400443,0.007285126843987552,0.006017899836721095,-0.0002617692051051516
303.73,0.10348864447458564,-0.017062851470817594,9.566297551076024,0.010336708764218093,-0.016558948521076113,0.001762143028791485
303.74,-0.16946810702065948,-0.3858291861565114,10.062081557507746,-0.004362365396172152,-0.0004946459955699955,-0.017810938974831932
303.75,-0.07247942025656312,0.38380947283695427,9.688300981768016,0.005646406341677668,0.020560069472621827,-0.019350749795487072
303.76,0.20763984814662798,-0.22990143979819758,9.445733941072156,-0.03107367374525581,-0.011390668604395447,0.036491900480914115
303.77,0.09955024288351307,0.013057602845300687,9.765853099485309,0.01048077711285401,-0.024889917633734267,-0.04111353262599884
303.78,-0.28011052206686454,0.07691390876234956,9.923954363525448,0.0017467636012042825,0.005758625406788456,0.0008967279379631308
303.79,0.07311560523235613,0.4013428781751432,9.58098091947508,0.02694006156138538,0.0070685746800033394,0.006343984960124673
303.8,-0.017080174804570414,-0.2552820204770136,9.924849686316856,-0.010438017000131673,0.041740606745530075,-0.009335178087101836
303.81,0.1683964974150241,0.18910874787523416,10.188459371301274,-0.0008034454273639264,-0.01982790086712163,0.018016190544247097
303.82,-0.1546915606129225,-0.10581155732041166,10.123893243360968,-0.0409288216661271,0.0007449803592765253,-0.012779886761848009
303.83,0.06784865659231992,-0.04224316722054654,10.084257647389283,-0.0018613592394309205,-0.025635619166272102,-0.006999262118094374
303.84,0.33341217238196236,-0.36040481354177284,9.968528768490234,-0.009955321844339097,0.010577501476839859,0.016989227160877023
303.85,-0.4368764691879298,-0.10985282361509119,10.0322935711073,-0.003701147239117957,-0.008085112426714287,-0.01709540451894951
303.86,0.4763618061396664,0.06860636404981968,9.926125571370083,0.01723696144587232,-0.023134226528273284,0.01323570695993563
303.87,0.018672623707966192,0.182378792286607,9.898184168484537,0.004431628016784353,-0.024757262518554642,-0.018975939629139363
303.88,0.28239353170770826,0.20194732002112406,9.702195922227684,-0.007483822563715151,-0.024466102444624677,0.016708680867905504
303.89,0.04218718650186979,-0.07846622841081309,10.344062872517307,-0.00015950314256127682,-0.0031535892220080275,0.013924544782306569
303.9,0.08430437308506554,-0.13403785164396007,9.953978256628064,-0.03087827741306111,0.04885347447742549,0.03337069400490714
303.91,0.16332349899706985,-0.00793360602422332,10.038723039504648,-0.005394064762237336,0.0005903726514813402,-0.0189282589155103
303.92,-0.021291204910970453,0.07049800579043314,9.523382723229728,0.027055149002281616,-0.02792442831003762,0.022128458044221082
303.93,0.041597088103429616,-0.236175600404617,9.734289106348957,-0.014395965844933252,0.04603454133415107,-0.009416244942341293
303.94,0.093436242369617,-0.20107689793647338,10.180211283250781,-0.0019422866313537565,-0.004378283417444047,0.02564509369282464
303.95,0.39109141613754556,-0.10526124441370784,9.791673982591726,0.03210217211090231,0.0022686900562090247,0.00946800932839965
303.96,0.0015763717447442262,0.12227616394720008,9.746451490520913,0.013486097957795321,-0.018590273078361676,-0.008925084134132235
303.97,-0.1540409406676896,-0.03441326595617112,10.092219405467498,0.007393971496253484,-0.02691908008097377,0.01904982101868649
303.98,-0.12273435608500163,-0.10771116878813705,9.927325815449892,0.021188723892685633,0.02141556735443643,-0.033310960954315676
303.99,0.2671923060619444,-0.017732777697466263,9.751707284486482,0.00354303840651567,0.008042958467378904,0.0058463615276038074
304.0,-0.302181968596341,0.13624457983356042,10.010046627600952,0.009462252526792028,0.007584342613846669,-0.005075050651815398
304.01,0.3440520931625697,0.18501305324708475,9.864331946481247,0.0001005126273986062,0.009133046572383922,0.005271728622252681
304.02,0.0764291787068002,0.11690072260421572,9.756015277878317,-0.00405621015740471,-0.017414694470994765,-0.028970668460146242
304.03,0.09813182662933125,0.020085546821684192,9.916940218784907,-0.02633252948661504,0.008154574051517696,0.007132586617073059
304.04,0.05174327654362111,0.250165974788099,9.85474825994417,-0.04563786728860678,-0.002173530387492996,0.006759641492006166
304.05,-0.013989196930151014,-0.10676744924978507,9.232352780539538,-0.0020260192156082713,-0.012868734726887612,0.0009368527164808838
304.06,0.17138212249401974,0.4242064007763665,9.956556187991831,0.012528591470473999,0.009347224375132732,-0.0035690568954956634
304.07,-0.1735484872747284,-0.020455919515148618,9.529024525980942,0.00645423677179509,0.02464168134843942,0.005128878834651339
304.08,-0.10242855698087315,0.15531466554544587,9.879366387404168,-0.015108240694466374,0.020479297467773508,0.008247447333683988
304.09,0.11501025400265547,0.029183336504606593,10.115296841006135,-0.0011823123545936965,-0.00874021864328792,0.05156889140516199
304.1,-0.16506435875716366,-0.07367310686617151,9.808758830028403,-0.0001625184184996696,0.014837718647154547,-0.002905993187713901
304.11,-0.21268390290320388,0.12462164516170005,9.860215761721346,0.0059768019124762225,-0.013995175899946368,0.013956331772607232
304.12,-0.19833311339586499,-0.02918111189278998,9.589997032806956,-0.008212461031403282,0.007484864257208613,-0.01709349413484674
304.13,-0.2323443451522214,-0.049188169296476916,9.97024692895167,0.014023452008743668,0.012419699856918182,-0.022354927420944505
304.14,0.20341047123703118,-0.057999904870894396,9.604504269436974,-0.011683235955214477,-0.0019175003662575182,-0.03472523265531734
304.15,0.25464950518573654,-0.046576416590587484,9.339905638245783,-0.004778576790530064,-0.004121439347130757,0.009442545227133765
304.16,0.040771101320932625,-0.11598629922924238,9.464101932449848,-0.020551267123354967,0.026384828352655855,0.022378545657165877
304.17,-0.2659926668587306,-0.0032277453068662275,9.768860324729777,-0.046661681119752545,-0.0009375894250010099,-0.005765464565678257
304.18,0.16510048216382045,0.1740333527485189,9.495612260774895,-0.018280149333839816,-0.004321016580936316,-0.014816592441934964
304.19,0.10621482687268162,-0.24848206817150417,9.37080611945965,-0.030179974728017506,0.027500198681043673,-0.0035122242596599485
304.2,0.2125348862091818,-0.1201711430621416,10.099602808228122,-0.04006404526845045,-0.01330836017162835,-0.0351505621203791
304.21,0.05567388169906628,0.02307357733342521,10.141096327269034,0.041281625080740535,0.01010421263642662,-0.00017590265626620837
304.22,0.22467892157264527,-0.06055459624989413,10.224768616696867,-0.02678867323731639,-0.03363149735388837,0.037904216102821915
304.23,0.3552502741676423,-0.23961737066453545,10.236876653464638,-0.015446938538163365,-0.019984771565614033,-0.01880224066080571
304.24,-0.0989841881009157,-0.11638271421969373,10.027444024072244,-0.007201456368686364,-0.02544674207584711,-1.210559430121776e-05
304.25,-0.13736381788987354,-0.20540903535016064,9.77908284607675,-0.013761655859346333,-0.02778227491963636,-0.030131393569719524
304.26,-0.010006533656886096,-0.02832159665470208,9.539230350515462,-0.007311584570049224,-0.02473118916542073,0.010520701152041852
304.27,0.43903506042668666,0.4407954729018914,9.897506478920349,0.013006647150085746,-0.013665442058130736,-0.01051408885825796
304.28,0.009668999476134876,-0.048968298380504344,9.636179804356013,0.03304416871257145,-0.017131385360351626,-0.06223628740158009
304.29,0.13319236741972335,-0.10192255976546552,10.07871540182581,-0.029901772023137735,0.029969937125962205,0.0012047754397468537
304.3,0.1709617413323209,-0.22092328087057939,10.016507118822592,-0.007458687850348598,-0.014828146691489023,0.012732202267992192
304.31,-0.3042734974195906,-0.06794622095563188,9.973853436438235,-0.004667848803932429,-0.0013122533334904217,0.02534806908090396
304.32,-0.1374324591741867,-0.0500275908442131,9.932620278218423,0.017971403989583766,0.016886729949325777,0.015444204553118866
304.33,0.029504721746990127,0.07139891473300576,9.813032470809688,0.0004755452588811188,0.022364779782315183,-0.012508694642758703
304.34,0.06688537290778979,-0.12095922511840139,10.074282600338732,-0.020523489768503978,0.01361707527491704,-0.04800536977565213
304.35,0.08399227434307588,-0.0724956442130864,10.092398996691607,0.03987323455180943,-0.013773062322344968,0.008552799843729747
304.36,0.209709613733675,0.3650727464340245,9.714687966193102,0.02150908266949703,0.005513208106604776,0.018736582199059264
304.37,0.08239944825863596,-0.11265768806686915,9.619419550857781,-0.017515271806766985,0.0439870899154666,0.027187306469506362
304.38,0.03365256349930827,0.08895609819241454,9.895676546869728,0.009147599755280011,0.0035013454052328827,0.016835300693119337
304.39,-0.4915405688654458,-0.11312680940412231,9.927630223385798,-0.012282815861109735,-0.011242402753223812,-0.009775806221092713
304.4,0.10815728995569493,0.15851897833169065,10.029189398628573,-0.01799205993056975,-0.004317423830132174,-0.010230188145470609
304.41,0.014440978367182543,0.00227618993449874,9.854582363227852,-0.004235094504812795,5.031435911785146e-05,-0.010528079357497102
304.42,0.12311778117791895,-0.2367949831559849,9.798313484541014,0.0017114052825454042,-0.006611817761577329,-0.0007253628842175196
304.43,-0.027373086439102835,0.02102015340457149,9.8716769124018,-0.01020223485356243,-0.013043311382512414,-0.009588162862597565
304.44,-0.04182301155157582,0.28108792129883264,9.699738680521477,-0.00010997206238433806,0.02108664060243611,0.0036190261384392874
304.45,-0.14750671022375797,0.24173640654451833,9.625964536375394,-0.0051729229593532365,-0.0052629376412155725,0.011078251900489439
304.46,0.1216378746553809,0.13314357031945406,9.841381265884623,-0.018121845541663198,0.0017888872290566203,-0.005188216325477024
304.47,0.06843625986328969,-0.14626862104855157,9.75082455364415,0.03485875483417178,-0.031357565736456296,-0.015031273146110791
304.48,0.28846523110679156,0.06071036362768954,9.70002946486608,0.02478488395948089,0.003823054372805045,-0.007649991162774066
304.49,-0.09729095848593919,0.1780511219053134,9.830837532325514,0.020938577447602934,-0.008986710530280053,0.006811379007573291
304.5,-0.001510326074436331,0.07224862165027117,9.796193582525843,0.005941750478654519,0.0001014981271975388,-0.004942062655825823
304.51,-0.08979462965511337,0.061926804970909105,9.884571161477774,0.005683770987993952,0.0022953380962245145,-0.022691103365165752
304.52,0.28149960447097255,0.28795002562714367,9.823229048003492,-0.018135393089631354,-0.0014633817966774516,-0.0026174517996662523
304.53,0.09752787874050142,0.1494018877217236,9.678561884695798,0.014536395712657411,0.005300232049213037,-0.002029450341478444
304.54,-0.09082938996126697,-0.2260490980074558,9.896668091005573,-0.02146911419419713,0.012863454673369941,-0.011407639419317519
304.55,-0.05432963062834611,0.004470215505826146,9.86105666098444,-0.0028191017620561457,0.04690152367393225,-0.0007321986194468222
304.56,0.12013597947139601,0.14783440777158205,10.130086000826044,-0.0063850070313446255,0.00287557176764835,0.0026160149765576423
304.57,0.03790471361734641,-0.11512689110594243,9.775054079629117,0.028554283830166175,0.005570064502262024,0.03452074260226939
304.58,0.023700530652365288,0.04520298159324587,9.671646211619443,0.026482814776677372,-0.015039589403312825,-0.010389858770600145
304.59,-0.23787800747406773,0.0018297288988343202,9.81447372570249,0.006761315873677095,-0.014795601732500406,-0.011632608192241113
304.6,0.00914283712702148,0.014015498108828168,9.827804320183237,0.001820056893466748,-0.0033082172761826896,0.01794109256111201
304.61,0.11604480757743064,0.09126631789672474,9.562969028128258,-0.001956770921877537,0.018101191476553816,-0.005935576256366181
304.62,-0.17022029166434632,0.07357506471598098,9.972175085130946,0.024471367613122772,-0.006337809840511603,-0.020261594997737116
304.63,-0.030569084413489166,-0.1640391076749578,10.000682242094397,-0.006708992723886331,-0.05048311870445927,-0.003991250202326956
304.64,-0.24127990893068377,0.1206271568150707,9.633710946224308,-0.01212381114366902,0.008424770517945199,-0.020599836171637423
304.65,0.002797403600703063,0.26518737252684543,9.87337915396806,-0.03199638822595248,0.003653141872496571,-0.007028249504478844
304.66,-0.09409014036899996,0.07828495684549265,9.755981932078926,-0.018174579075909622,-0.01828362991851147,-0.0081626845634949
304.67,0.005912172962372531,0.1505463054317833,9.70892662400609,0.022882236343970658,0.00716784047758284,-0.02007513327396299
304.68,-0.23705309087994253,0.04744901095065743,9.897506844555789,-0.013532526613673974,-0.011993229485557108,-0.0218219554183972
304.69,0.10149378339757452,0.11860667971856484,9.66721855938149,0.029971610259542675,-0.007571428886367654,0.005406189587392446
304.7,0.13530804761784046,0.08977323923894293,10.126056563908437,0.005088412523361705,-0.0031835481025531977,-0.013969844443753177
304.71,0.392801157950923,0.14198527082212478,9.732022505843805,0.04244747147616213,-0.022727000242662707,-0.010311392751820303
304.72,-0.27027774487973094,-0.6054062768028797,9.744552283675322,0.010699461557825514,-0.0014093500008947103,-0.009699195020092042
304.73,0.34159049601889624,0.08383944926266187,9.941644163576408,-0.007127770629209418,0.0011650945284324985,0.03250964109850966
304.74,-0.0053430173277557655,0.014909830522926212,9.809366043424083,-0.037866097745363696,0.009403978791455363,0.025398818337427326
304.75,0.27981704615133607,-1.0969108906569873e-06,9.843647828672713,0.01861190906870149,0.023403354961789875,-0.013116149542946048
304.76,0.15712584963586881,-0.2402758955704823,9.821518568785326,-0.012649794329628898,0.006121725255488898,-0.012584118417590105
304.77,-0.047882614210955625,0.03614072585998142,9.888955177144702,-0.02085737707906014,0.00983036053770109,0.033629701376218096
304.78,0.008261920519385462,-0.07608560255445015,9.8677098426877,0.009592357532989145,0.008747378793487713,-0.004274586147655727
304.79,0.05679967058733359,0.27038840151613036,9.358471208454452,-0.013290739437239237,0.020527462008666272,-0.02261768528729807
304.8,0.23309096063566181,-0.03963125506853419,9.770316935573382,-0.02672110354916567,-0.02617838045754453,0.0004167278516002227
304.81,-0.14685641515050765,0.12364855822551982,9.582001541011433,0.007487881232319198,-0.04402313237087717,0.0053191883858861476
304.82,0.1874943080124101,0.008410755782373413,10.19563937532334,0.0012196840589795922,-0.004018684593372626,0.038923763574963764
304.83,-0.11337355500300948,-0.02106412100899153,9.869985551363396,0.005891184231872414,-0.02368921929853141,0.007087434609097579
304.84,-0.10369746675664417,-0.18466114551756527,9.806504884028165,0.01140589056755229,-0.06217459366035351,-0.025981302821472256
304.85,-0.16784101843348959,0.07752004636219334,10.023932419471468,0.048240000385325554,0.0030685534822295865,-0.0049515602542005935
304.86,-0.02800097268199792,0.10171254413344621,10.02572163391855,0.014690764282051481,-0.009086369965486635,0.0013621237471540273
304.87,-0.29053883419374665,0.14959404103786453,9.78144061623369,-0.033802634054281536,-0.016306833104820416,0.024782933133072577
304.88,0.08125990418446358,-0.12468067063708543,9.299827287695232,-0.035702732393275,0.012230029289614119,-0.009896922295014664
304.89,0.2170890215483693,0.0732564142683257,9.901638080426702,-0.016374699315189655,-0.009629649915088943,-0.026004985354266
304.9,-0.042876348379170794,0.07426564215853679,10.003724939727617,-0.008087416637343003,-0.017368801574089484,-0.003404206777153852
304.91,-0.07138565052310686,0.08438706432788472,9.99547253723167,-0.010783903459843482,-0.011924796389279166,-0.014793288535501874
304.92,-0.10187981276667546,-0.03029664477449082,9.707259177565215,0.012406213837523257,-0.018560084572587923,0.00010224071483201718
304.93,-0.3296827817387311,0.09928253703192759,9.667644562592566,-0.003412237777654228,-0.014422500850617024,0.01985658762435445
304.94,-0.16779409778755158,-0.05318061375801862,9.704742226630534,0.005918064034903008,-0.007548777861935279,0.032745445763225876
304.95,0.12480606255202788,0.16458898954323414,9.858780309467681,0.014761504535498559,-0.00010293722779432331,0.011365041631792094
304.96,-0.1737703080918233,0.07644079214729664,9.990408013903936,-0.030313632429059573,0.019380178002281874,-0.0043389728081370494
304.97,-0.2925810694992995,0.09849370168006644,9.816692653129643,-0.02476091471927936,0.004305688462200317,-0.043457087972532685
304.98,0.1692869025706899,0.11486821288397342,9.508343700529093,0.010334349281364704,0.004994924500692986,0.018788528744781544
304.99,0.050604445680272,0.10977042845408892,9.89191344315125,0.01064745108518805,-0.006435226222058728,0.0056833091326820295
305.0,0.2664392967253315,0.3080284572868874,10.0294484832409,-0.0004796480307349786,0.025580040370563214,-0.027034053502774113
305.01,-0.20530265391462543,-0.04350783245388792,9.892282151249177,-0.0046901394139995745,-0.022579135395661924,-0.007457150520693346
305.02,-0.04018226247915191,-0.056820318103156214,9.91060410065454,-0.022713091718233814,0.0003662217814038779,-0.013894635118909125
305.03,-0.1139233593651422,0.21578541218838718,10.015238914466964,0.008609192016865726,-0.03239513709220073,-0.007689800979319886
305.04,-0.19580694592854164,-0.22575208395644236,9.873685022355776,-0.009076989900451193,0.01758024474249133,-0.025105749078331456
305.05,0.09372692426704779,0.21172368621181867,9.749672567366659,-0.0014009788422807714,-0.03464864162313028,0.01758533368709518
305.06,0.1421315394323001,0.11702127637850221,9.759461913926685,-0.010344051525513858,0.0026208637818120146,-0.04207788300216576
305.07,-0.26524629069061195,-0.24321814328346555,9.614770683239044,-0.022902544492877992,-0.03195689106418229,-0.0017010448823128574
305.08,0.016751745991481545,0.2564831759456358,9.756869719706152,0.030209131364509322,-0.017402467376249082,-0.005374650516902128
305.09,0.18526254247479254,-0.0020543478637010575,9.64659682427559,0.04300965029924305,-0.004925863812854155,0.007987798939861237
305.1,0.1299423584717963,0.03838612730370565,9.65159216906349,0.025330727143920866,0.018077337934704004,-0.03141018688096851
305.11,0.051818442478421774,-0.06890018122055944,9.667648624257257,0.02663793794698184,-0.018251545068000724,-0.027339416501176543
305.12,0.11701368524434651,-0.03490884119706189,9.89665644242622,-0.014065648964467884,-0.006055799604478612,0.023396812103623956
305.13,-0.0005698401513130986,-0.09122401262945815,9.716656292324576,0.018127739791186155,0.001884401061492932,-0.003424271810752566
305.14,-0.20050801482111155,-0.04484154712538593,10.036301398715215,-0.015989021729566257,-0.021515320768930465,0.007343272817463776
305.15,-0.16934660348563918,-0.3867457461791992,9.688830397795787,0.007380909570987955,-0.010007989673731543,0.004488901457873111
305.16,-0.045185198115801725,0.22053868160635023,9.77979361169697,0.022728745715494502,0.020635384698510062,0.008476446134237875
305.17,-0.00482648219687419,-0.11050271218697995,9.64138824219623,0.00483048941190496,-0.008452077170433102,-0.025338804937513896
305.18,0.30627317790956315,-0.5290764748451742,9.968322603281333,-0.01805058429674676,0.014986967529721715,0.039043673719427144
305.19,-0.18986979090231182,-0.2532053650573951,9.976904221342377,0.022409691429984044,-0.03084151222409724,-0.004234041869675475
305.2,0.051672053257370204,0.2969243861171728,9.66554969582496,-0.0014421850734925073,0.007429104454256635,0.033954690550871296
305.21,0.05592501734359449,0.08922497003605788,9.896383379417637,-0.010935962939634974,-0.004149928456966728,0.030366840388250355
305.22,0.21352391285229205,0.05863770780112962,9.94842374232351,0.02247086264903773,0.040806384311769306,-0.03218178338455911
305.23,-0.12459038886851746,0.018895700663436283,9.905220343018822,-0.004207967395805385,0.010202029703215577,-0.03889805091697522
305.24,-0.1315816491953374,-0.014136709026726488,10.045056666408929,0.009196611358388222,0.02222687246680076,-0.01797090047925429
305.25,0.21540969452330452,0.13640067126103317,9.637020710270361,-0.04152641513535965,0.01454774219499387,0.005886521629903134
305.26,0.26626035936223186,0.058601866098388626,9.706639847799444,0.020513733636715742,0.02050965076268695,0.006832559631781408
305.27,0.09016896673254812,0.20088980912693127,9.679625896791286,-0.013625719892483897,0.010951055349726563,0.052913605511763544
305.28,0.1355867142569783,-0.1311777699463077,9.916818336730495,-0.02581855315171934,-0.029827359844954448,-0.02630224823751102
305.29,-0.24164547994849586,0.06402397187397425,9.583046368053102,-0.0017171367542442321,0.022029386184238654,0.021831238412722234
305.3,0.11113843038810373,0.009689655931973788,10.231217700407884,-0.02924252653716492,0.011388107023289058,0.044963415137654804
305.31,-0.1111256641889361,-0.0700027918559137,9.93163377153618,0.018330368661604167,-0.021011781386625145,-0.02201353739581221
305.32,-0.1538621224287115,0.023585522535401804,9.496998834453747,0.015360320336076034,0.013180015220316399,0.0066034391001992265
305.33,0.030358427381220424,-0.09503411936024517,9.927361741463063,-0.001071911285603584,-0.0075609789653528665,-0.002255274599339866
305.34,0.0208953454830035,-0.17948042036908407,9.635191188825344,-0.011697149826823348,0.0015579454198572243,-0.027078416599979564
305.35,0.16633136737704787,0.04029397321691413,9.697420058865521,-0.014962464496197982,0.004235478159851338,-0.014175838543542572
305.36,-0.05413288941327036,-0.19169136151923102,9.916747924191924,-0.02036009251021467,-0.014941215896864712,-0.040516487059623685
305.37,0.20538989218662818,0.18646467578302867,9.756872333900894,-0.010747245332062538,0.012392423010606148,-0.005674822049954373
305.38,0.19707118027202772,0.20060324626730136,9.563382689077988,-0.0023293285362272075,0.01643411689725335,-0.021539808147455156
305.39,-0.005246405390069957,0.11297763928415012,9.956652926064985,0.012557137706472987,-0.014831889059264096,-0.008034208895004112
305.4,0.012304531305853027,0.14822900139183143,9.909415036913629,-0.023281567976108936,-0.02561968214885928,0.015797577280316902
305.41,0.0542492012147544,0.1273731891849665,9.608654716520942,0.004818887549293173,0.012787422090459431,0.013436684571490068
305.42,0.11332597387392357,-0.0744034204160802,9.880331320336404,0.024097326284417124,0.00837004555189262,-0.031679749522213786
305.43,0.004954822482275229,-0.37432408225504366,9.646124998542671,0.007844253248589957,-0.0016552246730446247,0.026363554301565624
305.44,-0.06633888213968386,0.05971508421735587,9.931863584752634,-0.01688395686470386,-0.020297487002084637,-0.027750269219126582
305.45,0.09167427482312239,0.10477262735276928,9.37368706604543,0.0035353480992424994,0.008853665776559664,-0.02208417261429996
305.46,0.033943857506470936,-0.015746888750747264,9.743013069292196,-0.016332555368711768,0.010881131426770614,0.017969680922722518
305.47,0.1708110651172421,-0.1507342779318201,9.579836540969355,-0.023560564012417205,0.023042873939344052,0.017905008784503885
305.48,-0.35885452477924373,0.11054922785613151,10.0353572026074,0.019011754222122625,-0.01333391158554127,0.026251280703332897
305.49,0.07973792024332134,-0.009897626171182755,9.721880224420474,0.011308829225848012,-0.0015912023714800677,0.024943599211854097
305.5,0.15531695806155274,-0.26429632871328446,9.704639591157772,-0.054950978051866634,-0.015822073316940907,0.007108485033307671
305.51,-0.5309897933549093,-0.12201896833382317,9.855128801976974,0.04849057804812141,-0.013417830488075782,0.004223509259637898
305.52,-0.03717502589662714,-0.16632299157724384,9.96508879598552,-0.017280061353229598,0.020375525405672938,-0.009194156194546018
305.53,-0.0032428383783302634,0.10565715633856897,9.611088854877515,0.012144200537551086,0.0007352049306462209,0.023214541063888733
305.54,-0.06214822299636648,0.18075177082987146,9.664247749393745,0.011365437137622633,-0.008632805852911835,-0.0016189753081696716
305.55,-0.09582294193642579,0.10565952203088147,9.785104281601166,0.004981245926912413,-0.014896859037705407,0.009806982372577842
305.56,-0.02911720182371506,0.08555032953634022,9.786788399666758,0.02850729200033687,0.01998157516519773,0.030309080058588192
305.57,-0.15125262241363827,0.005243610368114923,9.687142397162289,-0.008581468068417728,0.00838174969239721,0.010169774968221966
305.58,0.020969671966522264,-0.09330011168495697,10.01950415578952,0.003937485079112867,-0.028619294285494326,-0.02715884897931776
305.59,-0.10540776877165552,0.03463715307008608,9.67968295826712,0.010434383329605714,-0.005066121541221808,0.03374978494601023
305.6,-0.13483267186176914,0.06755187513355503,10.143809755295296,-0.02331457126029382,-0.018246007159138895,0.005068378269447518
305.61,0.2724654376121937,-0.14625002111392194,9.937095115948415,-0.0041921214994024335,-0.01631248638894798,-0.0075993958452751234
305.62,-0.3466119565079672,-0.07332430961715543,10.005318266602268,0.0396525406387648,0.019079781298540585,-0.019652758578224374
305.63,-0.08006658519156813,-0.2598227164323374,9.905402736785499,0.011577920864524211,0.016221351154682186,-0.0285369831616671
305.64,0.2617611211194201,0.2769126064576457,9.55489687814085,-0.005213206151010019,0.026696195899511076,-0.022311413754688432
305.65,0.16303217553063135,-0.3464460493132837,9.372661155264204,0.005381197787288561,-0.02099001444369244,-0.0070460066834626784
305.66,-0.09600153880503245,-0.12872503379005018,9.903703121049674,-0.00019093024037211893,0.024309927058401536,0.013458949224831485
305.67,0.014995765574556244,0.254845736983444,9.656420942465164,0.0026399730734303836,0.016744922360956933,-0.0349847815569994
305.68,0.167359428192637,0.3626084935869878,9.779792775082829,-0.007744664705079641,-0.03970408790265335,-0.007994102311036371
305.69,-0.02491348529136176,0.2795536424029149,9.673236003276878,-0.005434070303463454,0.028815957205578675,0.012593898874132429
305.7,0.2944796359791241,-0.0246801082422353,9.751860476845918,-0.041475929839242476,0.01836809281649965,-0.025438422551780516
305.71,0.06241643939678058,0.02925122529795332,10.06382151087818,-0.006650478514437789,0.0178752384347921,0.007155423360274572
305.72,0.2156329553542963,-0.19508816498459142,9.758895595659423,-0.020986875855245862,-0.003868034486120238,-0.021050109431202762
305.73,0.10996182218689286,0.21805015496067545,9.656587995664259,0.011125672819968407,0.00965526483110704,-0.024584829464496253
305.74,0.08525213252691062,0.03320364059963121,9.954664041065532,0.0008813612983901043,0.03537381517802582,-0.01958736682966034
305.75,0.38305734283927156,-0.24681581430244146,9.66364566810999,-0.01131927111428468,0.017569028206423778,-0.010888113125873868
305.76,0.27715050395926605,0.3158619940472872,10.11180041667452,-0.006861388582052522,-0.007513145255604533,0.015715079158384153
305.77,0.41434714217248764,-0.20340453232928152,9.571595086534062,0.0037825387588040905,-0.006887097464613866,-0.007313528472430991
305.78,0.01920444815021265,0.011359374715857663,9.884500661575752,-0.027762214124510645,0.00804082345613818,-0.01667226150073415
305.79,-0.12896383059551253,-0.14552063690855482,9.992382913738325,0.01172921971584692,0.050614104739130375,-0.00787529469871972
305.8,0.2012015188118924,-0.08006420404703965,9.958794808033215,-0.002930118292736508,0.01931296768138008,-0.009404992631104617
305.81,0.18422430987363145,0.31839690930814557,9.378485829906774,0.012001302060018676,-0.003684205302405398,0.01446119159124104
305.82,-0.17842425109905,0.058321465287460295,9.724936311224619,0.003030133990396926,0.010698214195728025,0.007747375809208075
305.83,-0.3586415274508684,0.009987654818358208,9.537713156057375,-0.022765430293601438,-0.009902886890433303,-0.017456726902203977
305.84,0.32894101329585695,0.04530714210262698,9.585557812401168,-0.01267604998467412,-0.026380107502359255,-0.002286525618187383
305.85,0.0725393338689493,-0.10511362365884316,9.849022296088133,-0.0051023271209050276,0.018069692144148972,0.004140678979566
305.86,0.04544129977334441,0.02401404772663399,10.036429876792447,0.035236199580257796,0.0024793053270397367,0.00031047579152756555
305.87,-0.06578147382103086,-0.20080810321433828,9.880017661686875,9.291184993846869e-05,0.020008857873782235,0.0051204384824738896
305.88,-0.26398036741577474,-0.017047342804527285,9.701249324658233,-0.029692967407450192,-0.010911626051388942,-0.009725189510357907
305.89,-0.12094176393751617,0.2591570819734314,10.033849189274532,0.024431201753635043,-0.001559091403308095,-0.005640129137607483
305.9,-0.12824726385566473,0.18202433590525158,9.966731791228035,0.006049924988135768,-0.0035375287277352274,-0.00807921454438335
305.91,-0.05885541955840159,0.13988964709302534,9.843818673227824,-0.029256540253930506,-0.0018764899937221682,-0.007866176175317324
305.92,-0.35301322549606257,-0.12228477789903379,9.735448595680497,0.008469633628644073,-0.006000730641524859,-0.018113377407642888
305.93,-0.14917284477273043,0.03225002845914757,9.766550388726722,0.020232010346490577,-0.04993130212963233,0.02899133293410363
305.94,0.023747832818529407,-0.04752496755609533,9.825268878241602,0.028905591910028908,-0.015292012557385125,0.03268932079692237
305.95,0.33151036581839083,-0.18672413890583173,9.335912793798924,-0.020364000845933556,0.013802500858801836,0.012311702213644738
305.96,0.20073537888427886,0.021783469027393025,9.674207941942132,-0.020354110808625432,0.02425634065980357,0.026090939496210608
305.97,0.05082233979518047,0.21349988182488674,9.745788715044236,0.026699098065149453,-0.005915304603193946,-0.009954865833210858
305.98,0.20707670252953103,-0.04006212083269405,10.154682986035414,0.007499936243587951,-0.019167946358534218,-0.01097296018630666
305.99,0.1871550783115467,0.07709396042097422,9.827601635484903,0.003798744475574286,-0.04259844333036927,0.02461466459045201
306.0,-0.10170665548064306,0.2882082565184339,9.405443561777222,-0.0027914922452140266,0.03171441198112926,0.012596502975321704
306.01,-0.2606630380807738,-0.15852492586802552,10.178386501556602,0.030948250869467495,-0.01533020361036159,-0.010336662566049306
306.02,-0.21526656841301225,-0.05277885483537217,9.570566267925894,-0.02611868807095673,0.012731810210113223,0.008367512631746893
306.03,-0.20763358386231603,-0.2822189423489681,10.02738513136412,0.01165087438335693,0.02297554504312309,-0.008455424274502263
306.04,-0.13510793827539536,0.2452057045803313,9.959832651902097,-0.018312481665524877,-0.012966558259491756,-0.004321511403492899
306.05,-0.05434492193398269,-0.11532813651078337,9.660033417505018,-0.012511254006211218,-0.026369894019917316,-0.00911724926135112
306.06,0.17792106339887714,-0.18875060142766945,9.725469817781223,-0.04128313122330135,-0.029858043706941766,-0.005395446941661115
306.07,0.18383524893054826,0.16474535525942727,9.944842932666255,-0.014799795295188434,0.002017538941624133,-0.02503158562113963
306.08,0.040905070686417,0.2515312872413887,9.90271038151067,-0.01667115779392757,-0.016568180538583346,0.005713912175940105
306.09,0.10823624203644709,0.03560444074538688,9.786106236448711,-0.023017842696870197,-0.00580240925730789,-0.008130472028293742
306.1,-0.20688192192651325,0.06311749065928314,9.898173064074866,-0.014194253638572232,-0.008051824895375434,0.0038025415779814114
306.11,0.17804676592790641,-0.10100877029361224,10.04639763425274,0.01970602312531856,-0.032711774411667144,-0.02879016755179126
306.12,-0.16626734291778864,-0.048523170367835,10.192290399495088,-0.0146085044611133,0.00675381633925774,0.03727168064930462
306.13,-0.3229358021380943,0.1005074942250465,9.810355090131342,-0.019991382409088872,-0.011584419548508288,-0.023401111862515808
306.14,0.20033615019972678,0.2060100829981015,9.582117232180252,0.011145721693740606,0.033266347208084676,0.01216948743265105
306.15,0.13187667295544528,-0.12900018038339567,9.786922528168812,0.018015561359802507,4.189021112958779e-06,0.003976182369317318
306.16,0.26829460625292817,0.1599871356791904,9.734257735661798,-0.0014696907728830627,-0.013300154989101105,-0.006598217243790676
306.17,-0.47080662079549584,0.23504899393549647,9.79520280593385,0.0003070806990444385,0.028715005488558553,-0.01865369261965162
306.18,0.015675013044462713,-0.12151693985964804,9.832869199262152,0.004829529492042792,0.01888736628916759,-0.0011775958331317882
306.19,-0.1284258155743157,-0.17267154766600062,9.877980441637071,-0.016106285743185393,-0.03603755867888715,0.0367393105416526
306.2,-0.04556398268385303,0.041246901306559565,9.508120694348289,-0.01588473315208875,0.035287356801457,-0.029868843500840812
306.21,0.17742766598421492,-0.09695993989140071,9.688833606045627,-0.001983975696443685,0.01860564944522581,0.0076498760129080886
306.22,-0.0928818016814788,0.051173355851018246,9.392323517085266,0.0006261891042545338,0.0019421384259375898,0.010579848329719631
306.23,0.04675506619163515,-0.09474032742502941,9.958643118127911,-0.011528024839305073,-0.024192998150569297,0.0068884966333176804
306.24,-0.13032440035297174,0.46835072532431316,10.190879615375925,-0.03211704225299621,0.0013710955127883846,0.024462111486994526
306.25,0.09741842914868354,0.14734825674008278,9.799334233074319,0.00014295800391382984,-0.004604703761515698,0.0151249126036857
306.26,-0.1845573176338741,0.06736818081538301,9.793282464984596,0.010320455492256688,0.01735985507959632,0.031239912464036027
306.27,0.16973674557203483,0.030205088182878898,9.726442439680847,-0.010522743666749688,0.03386619459226569,0.014678922556462873
306.28,-0.004278472962471413,0.24302036989139128,9.916059289813555,0.012697102600749766,0.019992067902750557,0.022755858629238363
306.29,-0.12242465515288453,0.05214303348440028,9.529179150470611,0.002839318245595679,0.00022203512277388355,0.01180209090059006
306.3,0.07738413441620078,0.03954193115602368,9.727040564692961,-0.028266935284890566,-0.02020481399737476,0.03140426843166063
306.31,-0.06524423830464357,-0.3885793279651769,9.61084425647732,-0.014487477477148432,-0.008825305848727155,0.016161774491788124
306.32,0.03164892517197415,-0.2074901563407782,9.98546142642829,0.0076538226340769015,-0.023311410478552536,-0.020355313168217096
306.33,0.1053908246948201,-0.011849349982099447,10.017284154963525,-0.0175561413388084,-0.002238985906434372,0.030118124237050244
306.34,0.2772863450048836,0.552204885973536,9.828619783919873,0.015033585896875796,0.027284075034080424,-0.030853467986498455
306.35,0.11405499038025449,-0.12300858621225436,9.668281137601392,-0.0011259880344480987,-0.0018605554037277733,0.00999705546500718
306.36,-0.20106233134025195,-0.13273005394554574,9.718805319910219,0.026714629923510664,-0.010761959711761216,0.01280321817193756
306.37,-0.23574762493074142,-0.17845827427041047,9.715246650196791,0.012328113812365907,-0.001715300772633276,-0.02778488899125529
306.38,0.06929391603851763,0.050435495884899734,9.604057200995715,-0.03165232924369956,0.010481024551744995,0.007640129805382163
306.39,-0.1519179384568153,0.15077099415983145,9.985167923292515,0.02716769243742025,0.00539864641320683,-0.018574340873446286
306.4,0.034752652885082204,0.06792566003702637,10.007913538232158,-0.021030429053912184,-0.017875645371807487,0.0050337402129336005
306.41,0.3056710720400717,0.09434772095820991,9.774485605909293,-0.0007925915430670298,0.005288512409818858,0.015647647706927927
306.42,-0.15598199350433176,0.13815667832553577,9.663482265244955,0.013225777130674746,-0.020460739313322367,-0.014304935785104611
306.43,-0.3071406383693327,0.03408450659581963,9.74501021084845,-0.015151975521438009,-0.02089281555276345,-0.011937157117025778
306.44,0.18943496610117355,0.05940823553454051,9.422680072003505,0.015121776432933892,-0.01746001277961968,0.00029723964528352906
306.45,-0.2404790753680297,-0.06507674081430796,9.78675242565443,-0.027335515911454108,0.00762702670769502,0.004299467150846845
306.46,0.008437594028449498,-0.17332907619843985,9.908144859629672,-0.02227330114050867,-0.0018589787242606025,0.012275119198803723
306.47,-0.11731163757386803,0.43525986583744103,9.445683911358852,-0.017566007893684853,0.017390437065537803,0.003629183245862623
306.48,-0.15987107306173357,0.08477478187902084,9.841651457631382,-0.029964530803048214,-0.021377476913534164,-0.02053086599108925
306.49,0.2878353607733589,0.4112119458301702,9.838779999435165,-0.012584457044077076,0.012826305919294335,-0.02861224342226648
306.5,-0.0018732449575050289,0.1321850627647836,10.196616485600973,-0.019377165827206957,-0.00783449366058672,-0.014427594572059489
306.51,-0.021824356204041176,0.30708307792806755,10.037657750790837,0.007839508730696233,0.004794424032001543,-0.0200578489862033
306.52,0.10936458894353238,-0.17030720147276646,9.963205385207281,0.012787280858438083,0.006278813097802077,0.013970604867407366
306.53,-0.008320284833032748,-0.2099807900920951,10.321794755123387,-0.005258282692862233,-0.01881395246458502,0.017997585019910254
306.54,-0.19645831688888074,0.364293565228883,9.92642277536044,-0.015122347555487166,0.016385602944022273,0.01201060147714648
306.55,0.28414876440605885,0.1709370955627446,9.62373023789147,-0.007643300678050856,0.004845851075198623,-0.009261575760380357
306.56,0.2641227108093002,-0.2506777278383807,9.536918212581876,0.004486936979539772,0.011212348016652334,-0.04267030730396341
306.57,0.10808729892146099,-0.25578245694799917,9.889237163308117,-0.007857595404471224,0.0290686339998747,-0.006630570693481089
306.58,-0.292015973799202,0.11235972593874854,10.050842501274014,0.01085568430034089,-0.001234541216505873,-0.04039471892578551
306.59,0.25156111606528386,-0.017189697011373625,9.973899786782471,-0.0010975454781603526,0.012772776443340097,0.03492341144750176
306.6,-0.22391132523396554,-0.004362006146977715,9.857640440308522,-0.023355459442266076,0.047431029705533055,0.01731070083318148
306.61,0.059126670727831045,0.11911607554208059,9.753951875730131,-0.003229667316977616,-0.003288237293239335,-0.006690714744352492
306.62,0.44025149523409196,0.1395683482743148,9.931479012400633,-0.03554378238471995,0.0039071847332812475,-0.017175686109739453
306.63,-0.03734167658643094,-0.21733188786678156,10.17749631147879,0.01889686059533245,0.03917707130290305,-0.013585103982918317
306.64,0.05189735812491186,0.15743393895176916,10.090560482008083,0.02958844401652408,0.0066845230922232286,0.0032181539403591222
306.65,0.2101836199588226,-0.054870922339273424,9.847221617129799,0.0008487235746281124,-0.02082474342442211,-0.024487226551819008
306.66,0.03026118353686722,-0.12130471421994748,10.124094513598521,-0.0049180075518771215,-0.031519772621787,-0.00442931328715791
306.67,-0.09380173757486311,0.09136694433599124,9.882236658395886,-0.042988706639388106,0.022291955738982606,0.023548162905216493
306.68,-0.009764406192039991,0.11124068517450361,9.92886258247934,0.002715795743973291,0.02784640059750007,0.030084977452154205
306.69,-0.06795629297885761,0.016914810963125294,9.693600830055653,-0.022508460215432468,0.01743226369056304,0.004849114077533472
306.7,0.2499167576147162,-0.2652722973730958,9.849961285407607,0.026358262536321737,-0.005785293817687766,-0.003680706592479081
306.71,0.3667452852175269,0.18327335892962848,9.656019466746255,0.01306621431024686,0.007380672393521207,0.003580286892470972
306.72,-0.20700027054290596,-0.04211838665123116,9.57588298283341,-0.006969116971426957,0.007636370042080662,0.02450323281956198
306.73,0.20912364011097254,0.19139354144325596,9.94650932186171,0.016308985464112143,-0.015656957512325854,0.005834706439391958
306.74,-0.07129628073855974,-0.06412065520008083,9.68835357866366,-0.015112933723298869,-0.01003909464488603,-0.007514210378043062
306.75,0.28232755457583436,0.07651628785496867,9.526014729187072,-0.0077856825573279255,0.02959488535309169,-0.03817171900651688
306.76,-0.20974727856734246,-0.30681315128919934,9.485500739579315,-0.010830371565090934,0.0028116466390959933,-0.0099338393480062
306.77,0.04968878408627465,0.3445521262306797,9.727458837335357,-0.012805046783750426,-0.012999970947995782,-0.001996183991157049
306.78,0.016638101274474775,0.005804794605951076,9.195666814583118,0.004643410689901567,0.016890890188202147,0.02001857501346605
306.79,-0.07695753112906359,-0.18995992284921823,9.842863321960154,-0.004542647602503393,0.004693824913493699,0.06691899993634419
306.8,-0.05736205511130747,0.2001269475421179,9.870840600381314,-0.024275412464537155,-0.003925104037165378,-0.0055033564867393225
306.81,-0.433027831086787,-0.061096446501071204,9.627041988815735,-0.04510350239546652,0.026275362325903186,0.0011247290195982083
306.82,0.1245595813872987,-0.1074375604963335,9.909683173244922,0.009469172720333246,-0.01011853023617347,0.03712510714531924
306.83,0.11258784424656919,-0.5982726522034333,9.976217237984976,-0.009202008510160231,0.030464307856318214,0.0114322008310462
306.84,0.18755999872976603,-0.160214429838632,9.908203197820571,0.0073050218346448585,0.006507123108645131,-0.00912260711593738
306.85,0.10424724847691383,-0.06638132792005974,10.167797987350843,-0.03080243737152869,-0.010665699865844896,-0.022020584050048694
306.86,-0.11240105885955513,-0.021535917231853705,10.08032063525599,0.009232512731198177,0.011774374662281895,0.029518051876572172
306.87,0.08223411098085298,0.05052316830602213,9.727522235131861,-0.00427900896563332,-0.015130218691892423,0.011387621236032168
306.88,0.19998963175454698,-0.10783284939639722,10.07628557700985,0.017345951544039066,0.03193817545704761,0.012867602726032129
306.89,-0.2897630591220603,-0.04838552848123756,9.821160113659888,-0.012368262861896163,-0.0009961966167587241,0.0026114089922368543
306.9,-0.3296104127183752,-0.07259278716180988,9.620067495809485,4.300515641375846e-05,0.006208483817245114,0.03189232304264868
306.91,-0.12922756768233315,-0.1586534635160922,9.476600331205507,0.0375816127196978,-0.03016401302340234,0.013196066620040471
306.92,0.0869902643595248,0.008715981748158083,10.021264787154236,-0.05918973043152485,0.011160443316016287,0.03157772014536949
306.93,0.30845085488653695,-0.27127958302335564,9.691283883614439,-0.013836906063313852,0.029592140052991565,0.029499259532754486
306.94,0.17060706578302606,0.009000687268853329,9.67080714695754,-0.004780073009897903,-0.019740833426041722,-0.01440534035002637
306.95,0.06050309760902191,0.012657147979018377,9.842508911671294,0.013384888745567598,-0.017952619606210023,-0.010426976079605094
306.96,-0.14083115222428938,0.09782559529921953,10.02877191586362,0.0017874068868741798,-0.022972881057365894,0.015543160686739468
306.97,-0.3035699711297435,-0.14908202210081845,9.588367799666665,0.007076368956800338,0.007846297016166093,-0.0051357080617011625
306.98,0.021501104162559223,0.10773638748493912,9.830112392332824,-0.00958044194503747,0.009177299180458252,0.019546945049518896
306.99,-0.21135649463808104,-0.15886467788656897,9.742163853044106,-0.04419957435788536,-0.017810927911260432,-0.0006866329292350339
307.0,-0.30643958502516566,0.08851915371835951,9.902813431225152,-0.028878574101023475,0.0294715178963224,0.013950280431106014
307.01,0.09763314086878636,0.2281820449613649,9.678273114673821,0.03633583338269128,0.019573130616630064,-0.013680201418300163
307.02,-0.28015949588110334,0.12677731969192182,10.002330552781487,0.023267510409243256,-0.013921231384345329,0.037302889660407214
307.03,0.014940899979228308,-0.20689835217111646,9.601957303329177,0.008661253735684485,0.0205468574165776,-0.0044808963640131415
307.04,-0.3293166241560791,-0.1543668956054197,10.08150093688729,0.028272842802582403,-0.011357929727448231,-0.010221479106073445
307.05,-0.2846318198727452,0.14910937019944295,9.386943251116902,0.05109710295157091,-0.009559369589243525,0.03115326656218993
307.06,-0.15903966391050475,0.19271690267889763,9.889644786523272,-0.0036440107897297075,-0.010066587128227023,-0.012472524652461505
307.07,-0.16174235353539712,-0.02873679017984201,9.670926405060598,-0.009445086479078334,-0.0158942990850088,0.01782007175470314
307.08,0.13290591200129356,0.07746732293448325,10.006507297004626,-0.021094241856056056,-0.029531821938311678,0.028349387149221292
307.09,0.16552764425724792,-0.01885835836535516,9.880159342671334,-0.009421991472233819,0.006115098936894695,-0.006028396304958358
307.1,0.16185276233752907,-0.2663169177974969,9.681072624767022,0.0110539614302157,0.002161832603490327,0.012969642463655654
307.11,-0.015139899745230292,-0.2749093910949051,9.258294872050607,-0.002990420737076192,0.00957199990293262,-0.01669709688569648
307.12,-0.02210075801472566,-0.08489670782830151,9.855949267937522,-0.017621291759371646,-0.008693437678788012,0.03474085187542567
307.13,-0.03874911829832742,-0.14026857665771258,9.770392503885036,0.004481990552268057,-0.008642911473927947,0.0025941642756058736
307.14,0.12068257801631851,-0.045009012991413244,9.377102324685602,-0.007052843303110262,0.006433125878614617,-0.02064316779895018
307.15,0.05161980788282733,0.1016584022808058,9.482934912109295,0.005792179952549509,-0.00020510024340344676,0.03357353721725741
307.16,-0.198976994398491,-0.11057870257289606,9.74414653721534,-0.012353026600195643,-0.021960832231107143,0.021753298064258634
307.17,0.044409653220655015,0.196810673797809,9.894862183538295,0.016003613120205425,-0.0033326616473114577,-0.02027445563205273
307.18,0.13646088241173907,-0.16151159188364278,9.964805005025909,-0.003390958965645483,-0.016812556747041803,0.011905184559427785
307.19,0.24206678223248987,0.1314089844567835,9.448957535936247,-0.005311871392153536,-0.0049424076964857755,-0.025442289348656295
307.2,0.25573798122249075,-0.01103067597796456,9.827571916280666,-0.025455292457585762,-0.014665539630983767,0.010078974070615978
307.21,0.25819066794166884,0.07343539361937487,9.705008757410173,-0.003690304192532259,-0.011495502900771028,0.02113730217779145
307.22,-0.18008228901148318,0.3001138101529608,9.784669414681808,0.0021285902985900143,-0.009155427627162715,-0.04374186488133975
307.23,0.05802841402821234,-0.1832796720048854,9.952610409021464,-0.00527369220073588,0.0027426153206067303,0.01529986438370965
307.24,0.08942501896010238,0.037635833844610826,10.129314465144388,-0.001519189439771077,0.01610993594364995,0.018525719955766955
307.25,0.4612904208591569,-0.09552620366675775,9.868905263221299,0.0021305805529985592,-0.03486618118693485,-0.01615325874500524
307.26,-0.06953943670914108,-0.08721195676862059,9.965102473650175,0.006623365178366934,-0.00037403556036782543,0.023551936976456925
307.27,-0.08727969967759631,-0.2651821056003745,9.92077324043287,0.014198154015108282,0.020434158062722106,-0.00421800878554495
307.28,-0.19555461801205293,-0.06232316554492319,9.639642916436472,0.01524269057641789,-0.033361716583440726,-0.019756175153610157
307.29,-0.010344518142281538,0.22642020306454938,9.703273964400397,0.011745108533312742,0.031030195988295147,-0.00019041170626036844
307.3,0.03808959316472386,0.11178298943228217,9.865504054581006,-0.026115028743864382,0.0035873881168129052,0.0035459437546145394
307.31,-0.10367953525816996,0.04532435706912154,10.002712193658606,0.003347823397941415,-0.06456943226508818,0.027772477500416993
307.32,-0.047784637979431596,0.23454694175970278,9.833337276332458,-0.01021506157780233,0.01864429972319167,0.0162059453955032
307.33,-0.11574827509827719,-0.2551964934292316,9.976104609500318,0.008600185729891484,-0.0014621482919294835,0.0027448332871669004
307.34,0.09639132978972119,-0.259805235066061,9.715237608261484,-0.010345554886624158,-0.004343930306756577,-0.006872866156446473
307.35,-0.35300207818854407,-0.012453576510727217,9.626636883930447,-0.009916462964114477,0.01025469294274545,-0.013334821050717864
307.36,-0.23417777213125254,-0.062232011056099344,9.878640643966088,0.003022448352844433,0.006516741884909873,0.014015336912916175
307.37,0.05417954207698117,0.09172676956986921,9.671295228804194,-0.00022457861692005615,0.009110694063524539,-0.0011326115331979762
307.38,-0.16261851723015036,0.12313140075455077,9.640764281622499,-0.020783340060768186,0.0007520175971786829,-0.023536050613061587
307.39,0.06785449895640287,-0.13054408876724674,9.654331688767261,0.006364357566564342,0.0017005964778029114,0.026858268725435803
307.4,0.0674802947060514,0.13615302440531293,9.689090427119577,0.025969690789893897,-0.026990930552798845,0.012826297442056045
307.41,0.08149372188378369,-0.03330962350172606,9.585695149260633,0.06656216014202426,-0.0056221816570162985,0.0017036493805155208
307.42,0.07395813968734209,0.012959657555965386,9.593159705854447,0.016001382715796666,-0.024916488541106365,-0.02045139346198995
307.43,0.19546803354321007,0.011483118156928785,10.055911878026963,-0.004054381840268652,-0.014153811090483425,0.010315344505400167
307.44,0.07000539087445999,0.10893508439787117,9.909455948071837,0.0061817812051448325,0.010392456999985528,0.01385254702227214
307.45,0.04761135800689558,-0.3455541147277888,10.077433351798417,-0.00861089523762536,-0.00612236226109386,0.01933591242841623
307.46,0.09575546186174216,0.02761119834546089,9.969247821673921,-0.014602671668622356,0.006213252709122099,0.013884381365026958
307.47,0.2389190634084498,-0.14852347850344075,10.008268235724007,0.014986589731585188,0.014800468170374241,0.0032319162359051557
307.48,0.1773885681004571,0.3571505579872396,9.89948584572436,0.010084177371130255,0.008716378672510981,-0.024213525871126445
307.49,0.009632060663640401,0.24077793247877813,9.713910477636007,-0.00630482362733123,-0.010159993846155825,0.008164586935287725
307.5,0.06554459679163684,0.026139699693730433,9.755231560620482,0.019919436096619177,0.010594744022721996,-0.023557261361893064
307.51,-0.03857500812618493,0.17837172767569978,9.699866049283209,-0.02059107308691354,-0.028498374821016838,-0.006300582598397457
307.52,0.2643880933303525,-0.1938082428133365,9.966180062253377,0.0009194205057869747,-0.0029560318024453923,-0.0067481611024184825
307.53,0.004619425241674025,0.5047472558440017,9.99744855651177,0.01928961773173985,0.008369146951208129,0.027795027227273183
307.54,0.028097562992483786,-0.05691288557422093,9.921114340294631,-0.014096152237331648,-0.019749564977206296,0.014638980979486646
307.55,-0.021677761016253627,0.019583904423963953,9.638181514775175,-7.85724418921475e-05,0.0016047088293460682,-0.014484432162170196
307.56,-0.12457103380901696,-0.1933448618798951,9.95932298008937,-0.019692173206297583,0.007590136114477592,-0.007475150063394124
307.57,0.0036807401899578668,-0.0045400749397081445,10.067742340326822,-0.005505705541425243,-0.000806377600321261,0.018469659182902352
307.58,-0.05725252212310625,-0.3614862184004238,9.871721487937807,-0.002703001045399756,-0.01206957106792551,-0.023733850974448568
307.59,-0.25538420114467725,-0.2730719798612655,10.020602446366722,-0.024043096511358195,-0.0002562199202101499,-0.00210449222206286
307.6,0.17062000180653358,-0.14652905264658578,9.817882434065842,-0.0034053920429789747,-0.020172958977343978,0.02311408849572571
307.61,-0.157854282785683,-0.12711638429682603,9.90908972331623,-0.03619756520146672,0.004132332136287251,0.009765992855854435
307.62,0.3193891833238252,0.14737806801959097,9.746140770668791,0.021655488408341205,0.0028321713418931484,-0.023150867243706
307.63,0.10511575004719526,-0.0811365433373778,9.955138571228813,-0.038028899725874345,0.0365355467984444,-0.00367711064476068
307.64,-0.0227631966666848,0.05239198389317217,9.686308049117809,0.05698596247389193,-0.01745029835408002,-0.021477995051277475
307.65,0.10069980821506927,0.039212397312727076,9.638913442810253,0.008835152318213843,-7.364827111375003e-05,0.01253084206814018
307.66,0.1938354250207607,0.13041472172778729,9.974148735030232,0.004315002458780534,-0.020165672864123546,-0.007359947529356656
307.67,-0.09195697213717569,0.006878863119495571,10.162577377031798,0.010987331450426383,0.027733185306439083,0.0072052372391418
307.68,-0.05377446118591339,-0.38939767178720136,9.828781919130952,-0.025198624602878777,0.017952893295932845,0.006602029278136397
307.69,0.09731519863499992,-0.30075713133637894,9.98583001863409,0.010517568432491981,0.001704653695484001,0.0031581801181693745
307.7,-0.06529505109455025,-0.07817655665596493,9.604278386612501,-0.023504900222519366,0.005162211401235066,0.003079487681816641
307.71,0.3083113033496169,0.05977306729353952,9.318853896933486,-0.025021695413297608,-0.0167930504091398,-0.021484403644482623
307.72,0.3605274535661981,-0.10389481827444522,9.619952932546989,0.006760049944148731,0.020509149371774157,0.00658863869156315
307.73,0.16158830393208395,0.04554011408426521,9.97002595689379,0.00010100703264136924,0.0029978188556324787,-0.002765098648976205
307.74,0.059204741082222644,-0.23407959931615158,9.602373182022504,-0.004051323709757959,0.010995946058440988,0.01826986733926549
307.75,-0.006216493959742107,-0.07487619907422512,9.943206496786821,-0.0442707360141009,-0.021129316695815893,-0.01103331099247439
307.76,0.27228609409229465,-0.16856318433524942,9.989502031462672,-0.01481889571128803,-0.03929567073902972,-0.03399573820534331
307.77,0.16229221138884856,0.06453783771598419,9.630252970242044,0.01189755513729816,0.0030702650347536682,-0.009367616728673589
307.78,0.07023672446336607,0.04733271649230877,9.798942629001282,0.0033724335382150287,-0.02386960083219016,-0.022842542930645176
307.79,-0.14511145722161475,-0.07057648185274817,9.794047924152094,0.0009694895713931872,0.013676073411896092,-0.008323057388128
307.8,0.027292406000881522,-0.20141871146757176,9.864618686921009,-0.018485260097877636,-0.006274597752254374,0.015753328742224678
307.81,0.03092207824785495,0.031584666599325364,9.734662837931054,-0.0014712432575548571,-0.014319452677751652,0.034321288973901166
307.82,0.07121223021909295,0.162134637989607,9.868294557190579,-0.021033948112232952,0.012931321977393993,0.01859186639518677
307.83,-0.052906776809485294,0.027794444347699586,9.475871944612926,0.015000788212185891,-0.005482903634471781,0.002475283328400041
307.84,0.07892114887610019,-0.017005333203315248,9.401389625600759,0.027778852076975242,-0.04408892160064085,0.019558582127732253
307.85,0.13898490259026677,0.21918373734684546,9.854038718684814,0.021408229988056537,0.0004221150753233027,0.0006315903654892028
307.86,0.03755192030537574,0.26394700728711,9.868900499600855,-0.023870629417991236,0.03152451713217981,-0.01765635001193499
307.87,0.015538384455372837,0.1983614084937725,9.921479821132,0.011674976858828456,-0.015934768744996223,-0.0028406610712645593
307.88,-0.16735108748220665,-0.19105839384319914,9.829495906236412,0.008964916614880821,-0.0031645409447043837,6.42323905591108e-05
307.89,0.2628169224272884,-0.12451726605629376,9.771968976011834,0.0015581137480698303,-0.009409502176521747,0.03351571698464888
307.9,0.10904470351076845,-0.06259915925807058,9.78485190918813,0.016807586315641096,0.029173646146487153,0.03068262028554834
307.91,-0.44838978561865434,0.09432142773157735,9.625968901554248,-0.010727385592027178,-0.021425181386802588,-0.009480397521197646
307.92,-0.12215043946570335,-0.12105203627719509,9.569774833499357,-0.008215204925878718,-0.000991305199185884,-0.0032582722158498007
307.93,-0.030919242890428245,-0.081988779442445,10.051739561647484,0.0113482357318066,-0.008433832395100295,0.029964735925171706
307.94,0.033836016787344145,0.12455300033673011,9.73009488697147,0.01808024744278973,0.027835515122458267,-0.001944901475001844
307.95,0.45784006045648445,0.014760049666295471,9.926606645179048,-0.007428265596581138,0.0032021786984037046,-0.022738890226871297
307.96,0.187372783861545,-0.009861274769641774,9.890878586044604,-0.039633893093547104,0.02471086080263251,0.014045115675777906
307.97,0.04551035717809525,0.2222542506002076,9.863113030426447,0.005438003394484789,-0.0018384191446798063,0.0028164275682684013
307.98,0.11590099667778223,0.23580984497799576,9.72353152181144,-0.02492409405881312,-0.045967744337846,-0.003843760716790877
307.99,-0.20103720676005626,-0.1605192178966213,9.83574685831414,-0.004804636978841504,0.01230469541448069,0.028955086569015017
308.0,0.027271147575097066,-0.3018529434677005,9.700035986266451,0.03190527313389372,-0.027192131580951302,0.04065307593239493
308.01,0.006385521774175254,0.15262691601060444,10.029476854788753,0.002743316500038068,0.0199116448239274,-0.0154230961128107
308.02,0.4060955057839814,-0.21961772949959205,9.619697715164847,0.008419411061920339,0.02582099120078142,-0.01309737554221367
308.03,-0.005943966932687159,-0.25149730767111955,9.882805832483998,0.001316999854748208,-0.034343294733346956,-0.02460379151834714
308.04,0.12284503331040489,0.2080549989772026,9.862130786351067,-0.008783806482039658,0.009917648877946803,0.01805926124250867
308.05,-0.06872303142322328,-0.16390925632909203,9.96823295687006,-0.016581045690658155,-0.01970882377907418,0.011412929453415488
308.06,-0.3711530813975903,-0.07523196043531935,9.795018633007132,-0.003430258361833895,-0.008674571981449972,0.002567442119170396
308.07,-0.3259552596371903,0.1422687739999477,10.132217591252648,0.014342189895431104,-0.016006993194431256,0.025096132584602193
308.08,-0.10305568588312969,0.1471558639081515,9.898703963550732,0.00039209768783271884,0.011338773765688339,0.013907444057193437
308.09,-0.08557618951523822,-0.008908946501881392,9.692292203186357,0.01060608216592587,-0.00871853091208439,0.020708473367128437
308.1,-0.1465722890529404,-0.06441868696443756,9.968616699591395,-0.014742686007810053,0.02335330792658713,-0.00985324311617085
308.11,0.1140220164553812,-0.17651013673331165,9.847599129260669,0.009397920468840432,-0.011439197875575641,-0.023142291835742634
308.12,-0.10113181986146287,-0.30883789377005294,9.76606828038859,-0.02005020882290473,-0.014406018637029174,0.023583313275818123
308.13,-0.335358897835176,-0.012195782320895021,9.365704163704622,0.021466660049017816,0.023811638335816503,-0.021813520385631512
308.14,0.1176643708615832,0.0926946601194659,9.492172102877873,0.00019510368720544144,0.008498155991187435,-0.04833356974312797
308.15,-0.11879287680005324,-0.12664560968490418,9.672082511613118,0.027166056684485494,-0.016256385631817628,-0.025590976162069387
308.16,-0.05761262342209356,-0.0940993332641998,9.99969386284189,0.012615805383989313,-0.008226708463724003,0.046743635744097636
308.17,0.03801970302649626,-0.23245342124680182,9.631366908466829,-0.005660560664213925,-0.003043815657539082,0.009169407921001717
308.18,-0.15700693372596253,-0.05324449216184382,9.69074789615771,-0.0024500981681847404,-0.016857537989047374,0.013064461825364346
308.19,-0.12964798570468605,-0.04316960234874824,9.96823569024343,0.0037220218313422236,0.03221838295617197,0.006440939842552635
308.2,0.17495693916499017,-0.12557615721678406,9.8545165140367,0.02076256183349268,-0.02655586359583032,0.0012954312973061973
308.21,-0.15221828607241714,0.06820392718486384,9.575280625862764,0.035648154091910036,0.012714946808093274,-0.04398254259505814
308.22,0.046272546328216695,0.22942850417977484,9.710696591921998,-0.029610861737277703,-0.008293392643876981,0.025413717155794803
308.23,-0.4401272183520096,-0.10306295560804886,10.022873330149913,0.016102568195766227,-0.018031000630040456,-0.0012663088862380817
308.24,-0.007409014825190185,-0.1886687288819429,9.929969603193006,-0.010678936511243388,-0.01705998771209317,-0.030225927984204103
308.25,0.3155363128292988,-0.1473920728612246,9.673458261831373,0.0017138418954017473,0.011027174027899087,-0.0030662067211357203
308.26,0.05220519607232364,-0.13377153360171876,10.003595013370203,0.01347670571298018,0.004089851997443591,-0.023735774714784195
308.27,0.23306208170388357,0.1542039514879653,9.880577129683136,-0.03968224477940062,0.02016052212608249,0.017722738674381268
308.28,-0.32657402666912827,0.12776157174897892,9.452863493555304,0.0018402535203965393,0.038050053122114055,-0.024865696489359802
308.29,-0.08778845150062366,-0.2173746490791033,9.72544903640369,0.002398714982253588,-0.015930984537893607,-0.021900100381973445
308.3,0.1877230690890551,-0.09963415816499967,9.737070900571243,-0.032396110473361134,0.022821183191014678,-0.03925715763686456
308.31,0.12139327448900854,0.08605869598146354,9.733507730690924,0.04009408361818956,0.006544802194463638,0.004178235611937987
308.32,0.0399938440730454,0.14335021974957443,9.637187758608777,0.01889816387985681,-0.025341172633423857,0.04153032443642655
308.33,0.10730422358586167,0.2911286934763839,9.55330518051647,-0.02508007608089018,-0.01749087592525239,0.013115640480327671
308.34,0.19050934218294782,0.1632007856660704,9.560036654468556,0.026616795756195053,0.017121886856007636,-0.002031679367728526
308.35,0.15912569986999733,0.17773046252000818,9.842146877163595,-0.007916423231768409,-0.0025000095118589056,-0.03202658976614736
308.36,0.03845834725569993,-0.30152869550789396,10.01971639586905,-0.0034709801507707863,-0.0052686629942834025,0.025616412320666797
308.37,-0.06713640783510855,0.10053352204185738,10.21934929403132,-0.018077499670871,0.012701092999373961,-0.006011043094176958
308.38,0.06522125307915078,-0.03757792426147443,9.731330867164623,0.02626051800428148,-0.007948010547827667,0.01162627080676987
308.39,-0.041354418233547435,-0.10134375867066785,9.585638660918024,-0.01631424322514613,-0.01573608237345481,-0.01777743086329211
308.4,0.24967936780467753,-0.15213923125896697,10.095286187642065,0.012225244014606272,0.017397025429953597,0.02384342708816969
308.41,-0.20215357043855023,-0.300959414402785,9.650084075424235,-0.03591525056563534,0.021297906155975276,-0.012016670405393054
308.42,0.023021674752955853,0.25150554568855554,9.813275541082678,0.0028190280469672633,-0.012183226308843014,0.015181343017607285
308.43,-0.010418257803841733,-0.11530241116501089,9.994142492509727,-0.03682814844355758,-0.01901189197581214,0.023230771660307323
308.44,0.12390371173248345,-0.04033648912295906,9.403091419722006,0.026710626073939904,-0.011709645035825934,-0.013291064302095982
308.45,-0.3135242126500295,-0.3780237674027618,10.153761503962105,0.015514224702074164,-0.009285337348976205,-0.0029148672014834404
308.46,-0.19576151034022152,-0.005405171263926235,9.470395520540688,0.01684420828397604,-0.023799051310741663,0.030796763260506208
308.47,-0.06790353480522798,0.21656274528027322,9.995649711907351,-0.00797336886004765,-0.018523264150263462,0.003952505157607641
308.48,0.15663617876481245,0.2855110053922824,9.676482461298287,0.041438359535158974,0.026852855956446448,0.010732457853558173
308.49,-0.028924214312905264,-0.07191539342538213,9.780966760223821,-0.005565224993050224,-0.0020640891910660023,0.0033250071821928316
308.5,0.019383226968547433,0.1700855331239534,9.672320945271304,-0.013857690797528043,-0.01998669932928026,-0.005451981542106967
308.51,-0.015666266320071884,-0.13849630090057397,9.646884892856724,0.022493870575836402,-0.0035413327735706874,0.01078609796925135
308.52,-0.3403851540634005,-0.30734335549808495,10.038537025765674,-0.013469132614178344,-0.007421222513115472,0.008184622518562975
308.53,0.1546511685444279,0.15653479874728368,9.66406657924519,0.012696362368539623,-0.002900036354008646,0.004636436112466744
308.54,0.05646755883921449,0.012956402750968246,9.657923084664061,0.01845766346368372,0.0010522129109792112,0.015113834901342665
308.55,-0.0419710037409659,0.21062844758873026,10.02904640975557,-0.022552743242928632,1.0001971242495596e-05,0.00249016415652112
308.56,0.029967494960745435,0.07515948694632095,10.112067272844321,0.03749960829288841,0.030336919114852475,0.027892421718478305
308.57,-0.07178788520124937,-0.17304608010607753,9.875550103244208,0.02069380799194887,0.0001342726477180914,-0.014246099975920669
308.58,-0.09169802273984938,0.08321680276989349,9.566768945075028,-0.003653475229381457,0.033182419052177545,-0.0035579708769260536
308.59,-0.005090577731379311,-0.14594473072239086,9.814771492699203,-0.01836912846294366,-0.010882681588646729,-0.0041909763076091785
308.6,-0.1317225033748533,-0.14348684933061873,9.730212174287308,-0.015084004531464978,0.008800795562833913,0.01887753046293355
308.61,0.057419537193595,0.04404780141279593,9.97997019029888,0.04005919611814193,-0.01854929966909045,-0.005714807288454738
308.62,0.009825026401431408,-0.16617391688724079,9.985192599974782,0.01590108663161256,0.017197956099655843,-0.028755341286350912
308.63,-0.09708193846673,-0.061676808563363564,9.878276785223886,-0.004810576260716025,0.04089244658022985,0.0036321664727658035
308.64,0.1076263805023865,0.16254594318661703,9.996453242937108,0.014660913287145017,0.008959372009910883,0.011256220667267112
308.65,-0.012444572521650765,-0.21769486528811818,9.944866490602083,0.026657485958355907,0.024095431920836585,0.008742762020437706
308.66,-0.13646131704305045,-0.30354349213595766,9.851997658321636,0.02991006605330707,-0.013167422617577156,0.012761025575585621
308.67,-0.006904882466483159,0.012465612766097638,10.077451155164457,-0.009344051985106495,-0.055783835519892265,0.0284409417129609
308.68,0.1460903579587469,-0.18328685638086398,9.661115712131167,0.011274422535412278,0.023948050410239133,-0.028927480668079517
308.69,-0.04439545593394656,-0.19188089061408448,9.880929546654816,0.023196310567323648,-0.01982001506242907,0.010583670518659874
308.7,0.1325270332278847,-0.29282296645828537,9.863624989802418,-0.035625033042589044,0.046765190701189736,-0.019477249313533073
308.71,-0.07772883211977333,0.17971055710976627,10.100465729909127,0.015587569578828212,-0.013329352044734758,0.005779802298015264
308.72,0.17824345242023976,-0.084130494498482,9.770070091925488,-0.019724666768690127,-0.0033533001004431517,-0.018087883085335744
308.73,-0.019196337601306478,-0.12069999571669889,9.718860894365996,-0.029723968724380607,0.0250596290363322,-0.04619031393532595
308.74,0.08718494998358074,0.19074576155042958,10.139700732479001,-0.014386166268335717,0.005831058011596999,-0.014525190692173812
308.75,0.06673889375313125,0.12041171505795628,9.707365448595473,0.009908087147074324,0.004278161982001773,0.004644863761611581
308.76,-0.01864030168038736,0.14113167315703512,9.753600846584048,0.042415585444500345,-0.016945387682650432,0.03236889350581067
308.77,-0.2584878503017288,0.28737330868594385,9.787590342194017,0.012909613084720084,0.017676368911939282,-0.03241895197207312
308.78,-0.2078579408533804,-0.012841902351627936,9.7530864128608,-0.005767850592617843,0.011178009700761687,-0.014039577378684075
308.79,-0.2900821838608739,0.10328908631329645,9.60758255102127,-0.00839254482705356,-0.009139765070976113,-0.029369324265959874
308.8,0.04449872954704537,-0.18498855439605114,9.826931399401571,0.011055630267284363,-0.003736476870691072,-0.019253071590464056
308.81,-0.3575413607483495,0.08616910149200459,9.765605024425247,-0.021318021107999383,-0.03820159794796575,0.0014202637059980438
308.82,0.03720452718317074,-0.09813742384495752,9.552216363500486,0.006625062923203971,-0.004423789760911243,-0.017740772668910422
308.83,-0.21337182546045141,-0.01993997951254596,9.602424487153336,0.011663248704015477,-0.006800773058943452,-0.027286504021703108
308.84,0.27987158913738075,0.09935285968129198,9.826967240118664,0.014983663341739542,0.012029392103842584,0.0214898432233074
308.85,0.10480213246497229,0.05870808507325535,9.906269631609861,-0.033557748166994555,-0.030858049688152287,0.025888869430818588
308.86,0.003696472429414109,-0.10037863959849438,9.849619436021738,0.021881079096397523,-0.045573871850062064,0.010383348964610212
308.87,0.38002525048404695,0.007039531378716594,9.689342518223937,0.02328661123748646,-0.007122349196082964,0.017094096721574352
308.88,-0.011723951583496808,-0.02015870216196594,9.75897848753396,0.015773086513087786,-0.00875937774445271,-0.0015415680027958596
308.89,0.11182031680238735,0.0930228352307192,9.683926056428609,-0.0210990934165815,-0.0025136601600731752,-0.0223196883465629
308.9,-0.24709012555558765,0.07238523210732806,9.637044893629612,0.011278330704114027,-0.003445533941105935,-0.018833906526478504
308.91,0.06289879680187346,-0.019569883045475522,9.677831399492595,-0.030690440875047582,-0.012798268158373078,0.01251196381313621
308.92,0.020803962232474882,0.3239658535198062,9.66973917543458,-0.006269976209090581,0.015659694015251035,0.01075165414500898
308.93,-0.08303067224317921,0.006432930774020209,9.706067108310931,0.059870171962141616,-0.007057721628620063,-0.006050667573752
308.94,0.10756098394353994,0.270611152066701,9.759918123256991,-0.010682883086082763,-0.011765556243896044,0.061330316777885516
308.95,-0.18457210789260026,-0.16521925826284395,9.980042703316927,-0.001290802296024299,0.010337443285682844,0.04025163453425909
308.96,-0.08771834141738016,0.3815674018578916,9.569956344063066,-0.002030644801989078,0.02560036361488075,-0.0052081371942960305
308.97,0.18199477823361732,0.24226171999754154,9.789454462002633,0.01789330761147772,0.032301411915374306,-0.016296626814411797
308.98,0.10985592903666484,0.06649084102378429,9.405933253037785,0.02665642309120552,0.006454400605689063,0.02538471256333508
308.99,-0.09018511818611762,-0.16325640719285023,9.802937079615553,-0.022528388555871984,-0.005394911950957471,-0.00019712384225738946
309.0,-0.07527677251911745,-0.031493995106516355,9.966701294854932,0.00550211135314578,0.003903130308598814,0.008687750194010914
309.01,0.12373133620072266,-0.07936973438612811,9.72106989055033,-0.021203516161654484,0.006695404435286226,-0.001968198432820255
309.02,0.0027376702933250585,0.0045673808452828995,9.581353276991393,0.005573053563722752,0.004621060399092607,0.0018079529212375223
309.03,0.0483481204624011,0.05450211144693696,9.818589887795655,-0.016193886915391385,-0.012231936434685387,0.018377799726467456
309.04,0.08523082166567383,0.10244610035444318,9.672206188600224,0.027925368577896244,-0.0011839685418765181,0.010752132019344085
309.05,0.14310439551065862,-0.09677135648787553,9.739407887594895,0.0031077021569860313,-0.026840502415164065,-0.0448921191256648
309.06,0.2692259382167857,0.0038081509806773104,9.593071020782993,-0.004800656417946838,0.0013313846278586677,0.012990122664434377
309.07,-0.11239432156944411,-0.02478787918609175,9.62899079799532,-0.0068474357574168235,0.043892983902996584,0.01691178959710673
309.08,-0.04527178516179089,-0.1631773938079596,9.581274762616632,0.0018360420181028547,0.018094418160177726,0.002460708599367156
309.09,0.26585997531323236,-0.012493861919721176,9.575726521507711,-0.027992122798152812,-0.007279640964621905,-0.008772667628036752
309.1,-0.08247107246300882,-0.01955862461581718,9.48181943232861,0.005499381221328321,-0.02919690522923846,0.0014700322381394299
309.11,0.10660053941959605,-0.19452358614203516,9.511396959207369,-0.015971729924441323,0.02806003382498028,0.007726114965198766
309.12,-0.03910557942558757,0.006545907050993793,9.75501796374731,0.021912085058667558,0.00982046040090018,0.03830833038573122
309.13,-0.19820517100976415,0.07339284352124728,9.844944703917271,0.009524200564380112,0.020950373839980867,0.032873276422791
309.14,0.07619983064454924,-0.2278187846718167,10.148914750244316,-0.002204458460161599,-0.030111769138038466,-0.04046050345674904
309.15,0.2944313022129965,-0.2559802676993451,9.473686356123014,0.003477826026528643,-0.048125151735547524,0.02404412092224689
309.16,-0.2028926525142902,0.012128747997695888,9.550964176104404,-0.012006109839669205,-0.0021423962402216707,-0.010587190443747648
309.17,0.10953570062205881,-0.15021049372393228,9.352763096231099,-0.014862677986852181,-0.010298070393995199,-0.03174422489178898
309.18,0.36331491797006715,0.07511537681409819,9.829046124545576,-0.012312640155895456,-0.012859714704058011,0.0006461066272308058
309.19,0.14803307433749416,-0.28314351976356283,9.586279899448634,-0.015529560931692143,0.009507079890044559,0.05039062947936294
309.2,0.1404285567752526,0.01023474969289562,9.669567948682133,-0.035575570242271974,0.01639126797912597,0.0023425883628147817
309.21,0.03748882719992076,0.09069560230609672,9.822159644911098,-0.006123586616060073,-0.0006839736627026426,-0.0006297542398587447
309.22,0.027098920377532306,-0.1339554159046542,9.689538862006478,-0.005769546723646552,0.013711874145343915,-0.025600946771954167
309.23,-0.02951849959680015,0.32903750815643124,10.047944177409248,0.017662094745872128,-0.042365729253874176,-0.00074189677476233
309.24,-0.05913359005710542,0.21727989952660517,9.69572528930019,-0.01174685849724833,0.002142523279839058,0.021287505591475776
309.25,-0.06546069696308902,0.0292689559509684,10.014018484643714,0.023048753999907086,-0.04818249353021468,0.008307896087080376
309.26,0.06323755651701042,0.12948027762518513,9.99739342295238,0.01942167750701066,0.04139616041414835,-0.044834766211495305
309.27,-0.2502611916594658,0.15205856648788604,9.873553097804695,-0.013886618303157083,-0.00971074148211211,-0.030368574743237668
309.28,-0.031541393093247515,-0.05423896195842646,9.760582021922513,0.007551283704748944,-0.013126772801792934,0.013031121696461725
309.29,-0.2707562520475174,0.08606835280559243,10.103866939531391,-0.01866651946597977,-0.0004320688377412589,0.02637532325857353
309.3,0.15599264758158318,-0.03757142945461251,9.897137776867877,0.029301783935488837,0.009446867034292062,0.039768569073312485
309.31,-0.08221971860188639,-0.10456642021890387,9.821903665075666,0.008729271177668304,0.010709277449513789,0.006027482055123001
309.32,-0.1738297210214587,-0.233506510589525,9.913285165859367,-0.014526812812573621,0.012163170154175021,0.028628473448225833
309.33,0.20444044161361322,-0.1384876357719842,9.809376173073945,-0.011677506148126647,-0.06401004421952447,0.0066805471275554916
309.34,-0.0001228197332005144,-0.1154476624720201,9.906572367764557,0.006974774519219769,0.027525411141311983,0.005383868948365765
309.35,-0.331702220003703,0.1942585581267452,9.785864486430999,-0.0076251879207363,-0.013441754267162478,-0.02984750491192867
309.36,-0.095436567532075,0.24921550234264503,9.65087114938267,0.00557085246853141,0.005394267760587379,-0.0020351011055561707
309.37,0.07700477074086186,-0.34212190728612846,9.635884867253557,0.011337831013426355,-0.051565658534048014,0.03421189022880417
309.38,0.020703555067780034,0.12820527246740862,9.662851544398569,0.02735289161843562,-0.030117513343392643,0.008194897464682958
309.39,0.11863909293217927,-0.007210543850846561,9.935627062185848,0.01128284891215984,0.035878592111797156,0.024943116348744885
309.4,-0.06731629223197322,0.023807556454242682,9.616401196980346,-0.011721815006668978,-0.015364395890034284,-0.025239692523245972
309.41,-0.0070938030457699955,-0.016189634322790625,9.965974939009463,-0.003209344627164963,-0.01436608006040916,0.013532635731002914
309.42,-0.04794968937281932,-0.14731006223858326,10.178363371196667,-0.02359775472880784,-0.009999883719288487,0.01735707076349408
309.43,0.00939422998675257,-0.14207177549885291,9.81110433387589,-0.028439602173741408,0.02603932853753126,0.019511054684321877
309.44,0.03180248074703462,-0.035464606005705994,10.001918352786596,0.02859544268671126,0.012463070300137517,-0.015644423209462507
309.45,0.04611164282714106,-0.09504364464360754,9.769468425701419,0.014217133486041736,-0.00038817158627692423,0.007654418858494411
309.46,0.06956303981417238,0.09153909162161382,9.880090338448898,-0.03348546146054098,0.0160756663754832,-0.005175398648940151
309.47,-0.061013092725142284,0.1731186875636434,9.82012652614332,0.002799722341881554,0.010165880764143388,-0.0014635474713995892
309.48,0.2702256989866052,-0.13989987169336557,9.904328368340822,0.0310539619466759,-0.005161393060094828,0.02289708409763666
309.49,-0.26022831295358556,0.2180624325248978,10.122271596947195,-0.0025147609893061604,-0.0009156652886391747,0.03342475156237693
309.5,-0.08363700924964008,0.06463516664239856,10.084322196632288,0.013724093162616243,0.011884641698020332,-0.002209481293221628
309.51,0.2578072990306069,0.06262614737754629,9.602643315433154,0.008806784971816951,-0.030795299932957237,0.0012079056949621423
309.52,-0.2102849710270668,0.23500279967149504,9.720378813441815,0.0145359919408844,-0.005201831931275867,-0.001909508400166667
309.53,0.001290574065268932,-0.0879999348990799,9.935653963191303,-0.03137397516841655,-0.010906567795872922,-0.03753485444891387
309.54,0.08681869469136357,0.028710077265866222,9.749992571464961,0.009422477113718316,0.015229623131176812,-0.02414818622556371
309.55,0.1290517459805105,0.1254580248399453,9.534307409778998,0.00593780098639156,-0.023118190230857066,-0.02550346357309187
309.56,0.09933638425048381,0.20563339188363947,9.887196869241894,0.001002015030231669,-0.019265668328421953,0.0044624016850204964
309.57,-0.3774665417248893,0.41423603208590887,9.929995954224786,0.05553930923777655,-0.029277537116354366,-0.010689891737645113
309.58,-0.37039191179576897,0.3410472452390134,10.114830548948362,-0.014199359311695086,0.011874266933297784,0.010564021167279464
309.59,-0.31092187547211336,0.100198676994495,8.529214727383511,0.11612735201428892,0.4665942323085824,0.021380420600539945
309.6,0.07367682162247571,-0.0882907003087392,7.711272559731817,0.4354702903359324,1.5416853740065113,-0.051394031058193596
309.61,-0.21987444351323493,0.09408287647233926,8.016069249637425,0.5655098487364806,1.937811119301339,-0.03511256223488963
309.62,-0.0757057417083617,0.237647375062099,8.764698112102039,0.20334980053226281,2.387538523787789,-0.036300285303606794
309.63,-0.25252913852012643,0.12355235234539891,9.453109395650907,-0.2904277043331365,2.496509835591636,-0.03136017735810334
309.64,-0.4793588985361591,0.05793695146456529,9.416516095788001,-0.5215820189904493,2.1312061511624276,-0.0017816997571901243
309.65,-0.5881315513619535,0.01325935246068357,9.913848617147474,-0.2499576325174271,1.5344590845039916,-0.0011792639173826857
309.66,-0.27218679638760646,-0.011778288155184002,9.86466927782079,0.09848084916530823,1.27536096500653,0.06112261969772171
309.67,-0.39594641845457407,0.12765020607730182,9.868840299263471,0.16664819072360182,1.4191992339678121,-0.018140621316285757
309.68,-0.7480454632851206,0.0032875852129634273,9.450709330735283,-0.047445356073326374,1.4607271531662869,-0.032361917311135
309.69,-0.9576301495735451,-0.016401530595202357,8.913348894812994,-0.14640059765073732,0.9484161981505072,-0.009160309500330439
309.7,-0.7988045392165313,0.13319017676882794,9.906509941018175,-0.1764872094889639,0.7331507110640935,0.032210150681707655
309.71,-1.246201470148805,-0.05597909177521214,9.607429628130735,-0.09821490956994472,0.855584397219263,0.01939992001617666
309.72,-0.9882035786803895,0.004754261588135106,8.966472685406002,-0.028634933036734755,0.8873967160473758,0.005095891752244808
309.73,-1.904709909566153,0.06752518323662277,9.22741643223528,0.06601102158389091,0.28735520048127955,0.0005816997074792225
309.74,-1.5495778973761503,0.07623231217514626,9.847263847031694,0.01757617445897193,0.19550626448343145,0.012485378673194266
309.75,-1.7795638498918356,-0.16575038420893845,9.703853192956531,-0.09690577399413942,0.46867452882478305,-0.006326551782836398
309.76,-1.7257753206218103,-0.10195514665612203,9.545065125214418,-0.16829944196362634,0.6804507923329565,-0.029794395987155456
309.77,-1.6928151453276314,-0.0675695503607557,9.852362541248763,-0.050605222772478926,0.5407073266611467,-0.023639401128442684
309.78,-1.9004909829762502,-0.016750261639778777,9.671756483217498,0.025254501956240495,0.2372240179896388,-0.003101233509200237
309.79,-1.8574325963972829,-0.22519159369650243,9.779290946935358,0.010782366299123616,-0.01775303160715872,0.031211587324182423
309.8,-1.8235522276819967,0.03457262427789981,9.631772931372112,-0.023055338685364822,-0.035765286533199984,0.013100034879363166
309.81,-2.229119284819745,0.025531536354587034,9.408559905068586,-0.04495492592137457,0.04776819592065965,0.006473801422417637
309.82,-1.69730093034295,0.25426659203144736,9.248009190095855,0.05529447692478932,-0.37278901278496673,0.004023703290040249
309.83,-2.2690967543954836,-0.166751219200997,9.587745606187207,0.06032048406217095,-0.38931930722847075,0.0062570130846317795
309.84,-1.9675754982039078,0.14015604059075304,8.841202990496129,0.10044079822719441,-0.40036978919196947,0.009568804766798271
309.85,-2.1039495345033865,0.18510578125886284,9.19051252697236,0.13127464923876853,-0.33186906660723836,0.05723082141748978
309.86,-2.009729423759374,-0.12654763318280232,9.43777444905204,-0.0024251505064854053,0.08942273826755873,-0.025660731827614705
309.87,-2.3061175942751375,-0.03072604847887256,8.966510312814204,-0.04702453332145288,0.21619990693852284,0.009973358711293373
309.88,-1.9670153478821701,-0.18830865151248027,9.180149014560527,-0.07183388836330887,0.1581401403172926,0.016212104349778662
309.89,-2.3019680775665887,0.08269546989048762,9.408097208463937,-0.0342731534251894,0.11620312609753185,0.006468325253596079
309.9,-1.977035203775701,0.16056314571957145,9.63705193774015,0.017734116128209326,0.07346270417823737,0.03246560772976313
309.91,-2.207076807796408,0.05032843459934795,9.58431134892855,-0.031264679212835766,0.15225484968726832,0.013840730179823573
309.92,-2.484861653718127,0.260670435196569,9.715711116529853,-0.039648479508248555,0.16861290810891816,-0.0401656942544703
309.93,-1.8527141718754034,0.24464855692105195,9.030618674173091,0.019648554028284727,0.007503689445015796,0.04684681424208843
309.94,-1.8973664176981475,-0.03348175577416186,9.797707647810586,0.008644346067015416,-0.07577436359682371,0.012787008626854847
309.95,-2.0086067781399373,0.42528285769130725,9.373513021415382,-0.06541701353073305,0.10843848045171618,0.02353911743630506
309.96,-1.9579642666789194,-0.20556541953925378,9.687306166665492,-0.06873228442161779,0.2533664203246677,0.012954868468335903
309.97,-2.1945191244676576,-0.040607831280878234,9.760902916222781,-0.02276670888802646,0.22051525725285753,-0.016360588943745966
309.98,-2.039117818675556,0.3275274434514174,9.669087614157782,-0.0565823107489223,0.09294102923783844,-0.004380001140857365
309.99,-2.13796669431505,0.0985327167370669,9.497795998349424,0.012165128726261475,-0.028815195833371842,0.006214400695140182
310.0,-1.9680354630345493,-0.04105216154558751,9.726751559400022,0.03614187262390181,-0.1465011692121718,-0.0023614804719787365
310.01,-2.182622283498973,0.21857872636508657,9.87028984000172,-0.000675811759489919,-0.05516431324367432,-0.019798371941614056
310.02,-2.0399586535253307,0.11580155597197206,9.426671927986074,-0.016894272047401484,0.1271355926361487,-0.014427527248208597
310.03,-2.041924735154505,-0.06597383658809983,9.141478712713615,0.04689257812113552,-0.03910836583562792,-0.01693695080307871
310.04,-1.9349317084976212,0.04166002832590295,9.06738766006984,0.03869350017019809,-0.08700362834608395,-0.011102954851024024
310.05,-1.9690850936048439,0.010708259531319151,9.384961194603871,0.06162224716157789,-0.23954685644202472,0.03369781704617453
310.06,-2.0696355355829232,0.17815524819825534,9.85555770060598,0.02844567568356597,-0.08540127600516445,0.013923133550872832
310.07,-2.1322532203914935,-0.17387764096260555,9.381799590906923,-0.024142073959232277,0.14280473108504108,0.0051468733447798
310.08,-2.046589707699671,0.1729138108843927,9.699128066226317,-0.0694256445212859,0.26459490092025106,0.015502545095206797
310.09,-2.550266664240681,0.20751756619096373,9.300312642047363,-0.019779063055305288,-0.016090743616499932,0.03175380713080494
310.1,-2.042444937738262,0.03299098992887881,9.797084625781451,0.05827411536820991,-0.1866575676768843,0.025050926445010575
310.11,-2.0889990927734687,0.024049716750511513,9.70808326799052,0.025424722695985898,-0.06998940441770352,0.0031345910194799063
310.12,-2.225936155482011,0.1323385673191818,9.634576964637708,-0.023244886245551426,0.12402283028267654,-0.009652919541640622
310.13,-1.923516842414894,0.38178218835065886,9.596974598788684,-0.0018362328400144201,0.06662915290228982,0.021113389533402117
310.14,-1.9864077976148653,-0.441290960453376,9.4384004220253,0.04149592770706899,-0.04934948692835504,0.008197137338332602
310.15,-2.413420293403457,0.04016530882888053,9.185302935615878,0.06933773001804829,-0.21615799109251177,0.04727436585070905
310.16,-2.0229753397695927,-0.14296431140936552,9.687508711038232,0.027941030553547457,-0.07608682972358269,0.009820417830283083
310.17,-2.0828872142347654,-0.032177670308268756,9.589323185400076,-0.02502193996319856,0.1907844800176994,0.011255273633961128
310.18,-2.0639553242930573,0.054292870643580154,9.880389144097018,-0.09499159709281127,0.28896671036093924,0.009466451561232438
310.19,-1.70027423234027,0.21545422800862396,9.619541455917581,0.006466853887106203,0.13237160961409258,0.020778405116963106
310.2,-2.3118482715456494,-0.3848223662375623,9.456653842642872,0.023141918901046474,-0.08750130789266286,0.024717760059575936
310.21,-2.336131925299368,0.05315268501434736,9.726503728585104,0.01372015835467967,-0.05305575215120473,0.04308063965352327
310.22,-1.851845285955712,-0.1070589382412532,9.605023832155972,-0.01333364740513468,0.04585712740951284,-0.016109434913054162
310.23,-2.0356974607211185,-0.09055539962357143,9.440276634759687,-0.03289509804026626,0.19455114575890334,0.015280135359403283
310.24,-2.073598341497077,-0.3291116662238601,9.584895368736003,-0.03170886524993578,0.12212643156156097,-0.01684686357888761
310.25,-2.1607058174933496,0.1438534140913184,9.477462249170786,0.010034154267949996,-0.14763186197239198,-0.011024196322890357
310.26,-1.851335071516011,-0.3574793460459376,9.566623152967145,0.07513834128702644,-0.2819101592841559,-0.0012455478478821391
310.27,-2.285974656691889,0.1728881780896731,9.701847642588236,-0.026973501987956488,-0.06172425154702621,-0.04999419542047524
310.28,-2.220083648166113,-0.2638296292340151,9.716836494837597,-0.07439057339569778,0.17708755338673965,0.0032058485107331475
310.29,-1.8497415980252054,-0.25150469292887934,9.772531295800821,-0.006665189304553978,0.12280306698848285,0.014538795132845282
310.3,-2.585024761660013,0.026726463437818246,9.08229994268804,0.013849019200535145,-0.02208084399349373,0.03706547726724407
310.31,-2.1710581906053195,0.1416349325469412,9.4468756022073,-0.0025250816329598115,-0.06823538170040916,0.01901152398032704
310.32,-2.3826434291375165,0.03254269690849762,9.819846913348144,0.012327821544494497,0.00010390531323836542,-0.044381922259175845
310.33,-2.2799956545369717,-0.3465931080793792,9.398416771471004,-0.01857313110729268,-0.08661924753298185,0.011036665450586574
310.34,-2.1028114807013094,-0.13813187287825943,9.709121876291107,0.02710374259826856,-0.07797239475605239,0.012550029013432096
310.35,-2.490411541453237,-0.04726760736078588,9.428492241730234,0.01818504227700455,-0.036345741596949935,0.03822126280844764
310.36,-2.1796309168359946,0.03145539106761945,9.289893052826503,-0.011623870179353159,0.049408416679087776,0.030033841613738788
310.37,-1.9168403446581173,0.315126583755415,9.505493630530369,-0.0445806754074203,0.11333365388084383,0.031214060167072424
310.38,-2.1468095132556217,0.07969100348746316,9.416438219508448,-0.03661721554283354,0.11209108364740848,0.008930644209666001
310.39,-1.9957992046573159,0.21393219763747293,9.694664117712513,-0.0301432784604903,0.07131403863704919,-0.009338591182881774
310.4,-2.3692289935612365,-0.03207961486396814,9.532303711124733,-0.00046701573994330594,0.03787482276075125,0.016669911037577076
310.41,-2.347460513669222,0.05250341510074673,9.88434926931667,0.01315190376573613,0.0009568550487750321,0.008415744888050304
310.42,-2.2243099455993494,-0.384470403439571,9.465903559948247,-0.012439439051020327,0.011748864494318709,-0.0018691493841121263
310.43,-2.032941097549309,0.10475745188729098,9.443819449785474,0.017706747639655223,0.05715422254218886,0.00977553021811355
310.44,-1.9639728989018688,-0.008961507544513253,9.476370033066997,-0.043779898106170625,0.04266726253930623,0.015736334880045083
310.45,-1.9050081831071832,0.34605010318039264,9.14124046823451,0.05512843767281192,-0.19862815863488453,0.03107540706170322
310.46,-2.097532990115229,0.18185012234424291,9.639729209133886,0.037834951091142766,-0.14759871932453977,0.03626813291524006
310.47,-2.2178797121815435,-0.24616182615120977,9.79395431245436,-0.019357634833779648,0.004480584221785872,-0.008482453318035824
310.48,-2.0381936068453337,-0.22136485477489623,9.610048059996927,-0.05605810540631509,0.19988694395738751,0.022938019584075597
310.49,-2.116649799968456,-0.025255233589859677,9.362594410726363,0.014903246996918546,-0.0639917535500182,-0.009045468943956924
310.5,-1.8148147587481513,0.24413551070351117,9.812008458840058,0.04672437829904956,-0.23336836385997545,0.011471371981118425
310.51,-2.232470698007609,-0.03849119944458058,9.713650760748733,0.021133846685994266,-0.07249980464605721,0.01640357153208821
310.52,-2.2305095188777413,-0.10856536736760376,9.801678673750743,-0.0621689853602434,0.17871562443160408,-0.020230494678400816
310.53,-2.2543912695081625,-0.22707782791990544,9.712696686806845,-0.0771104997038023,0.29137284582366896,-0.023393353059615686
310.54,-2.328548423056347,0.15867523855071555,9.53266946987965,-0.049658697142055674,0.12123490168874497,0.027417870054525246
310.55,-2.229133256573083,0.21145912052778035,9.246175669891889,0.022286487791629405,-0.12807194925844564,-0.018063208231666683
310.56,-2.339797435751172,-0.40217746933595955,8.659427851931031,0.3073786519443171,-1.0625823982311173,0.04465263900056049
310.57,-1.9969756398209317,0.030587143200389518,8.807716814224031,0.42050035259573365,-1.014257645976189,0.029741769727240464
310.58,-2.222384099372524,-0.04140135920648287,8.764788054424416,0.3791728419092745,-0.18008811017671056,0.005718719795113
310.59,-2.249635829407845,-0.008794799129662807,9.072380241138799,0.1007751278302203,0.4762790423047224,-0.04769165640231122
310.6,-2.1115651892361798,-0.08825114209715341,9.920766276216169,-0.2330627308566804,0.616867252571264,0.005732886857370237
310.61,-2.232154038452108,-0.17682028045678458,10.013068116678095,-0.3669046264525397,0.40598492647305157,0.01951914024953537
310.62,-2.1178376356747775,0.15879339883359192,10.122770925445545,-0.17125241553804807,0.04776874376018628,0.016218116096055786
310.63,-2.1317034550701295,-0.06033738572215294,9.87717684114039,0.1060076502525294,-0.0640422192399156,-0.002810513268299321
310.64,-1.9791053565422536,-0.21168354166852327,9.99040942419242,0.09969548680784214,0.11568426752493571,0.042805027006267295
310.65,-2.1529606191203516,-0.04669744180269334,9.737200012370083,0.06506496147362469,0.09323466805054804,0.01874515139756401
310.66,-1.9679806382203766,0.10768448150871601,10.281094087559737,-0.09405825195183283,0.10850030036735696,-0.0029243710171309566
310.67,-2.33427605069351,0.05964066890073957,9.486394982808376,-0.18976203155566385,0.16899966569421984,-0.00530093408668036
310.68,-2.3246455178664376,-0.004863212976496403,10.058876309042825,-0.12866007725046066,0.2282625077637567,0.047422364924501664
310.69,-2.1745886097533056,0.1166714561857067,9.750703089421007,-0.04455867118057546,0.18034107149082812,0.007201697079186569
310.7,-2.145941755107352,0.13990600602905684,9.728322149020546,0.05860617849010703,0.11662521495618156,-0.009645355265904076
310.71,-1.976741824854722,0.08224590734121849,9.444890011654792,-0.018039352138186193,0.026608496563246316,0.01348566389872149
310.72,-2.0052239079643246,0.3250030661039053,9.565941225078094,-0.027797109378943287,-0.04072438610964728,0.003605206534203202
310.73,-2.3719768502341636,0.23074062813229262,9.298120772660987,0.05385006750106951,-0.45784697875390395,0.039319040676955005
310.74,-2.1123358664155454,-0.06882500428379604,9.751021520165274,0.004222836310906109,-0.25531964199361434,0.049156238766525695
310.75,-2.265351565705437,-0.03782680189294726,9.465480161239336,0.009101370161258338,0.18189523662190918,0.0006125538006653769
310.76,-2.337765447646832,0.004038457539141779,9.895304226822663,-0.07372867591104572,0.4416622341731867,-0.005764203325694786
310.77,-2.0565407037442918,0.1737754009236146,9.884420210137925,-0.0842760374749227,0.258882888892564,-0.03088439166427432
310.78,-2.0069435330387804,-0.15266321549547696,9.874277891369811,-0.049837606597602314,-0.06967965308297346,0.025592070522300697
310.79,-2.2759682692978482,-0.02278351689699615,9.555493047817553,0.05725159547877466,-0.3190991753486688,0.04258643609208426
310.8,-1.949677889100579,0.26593962072120625,9.735592535556771,0.006194282887995402,-0.180951346395547,0.03074058418924509
310.81,-2.2698367595237143,0.08383869731751788,9.780487779932637,-0.027723279006768065,0.10580235686295551,0.04317096425199654
310.82,-2.3028325950234128,-0.2763038466709632,9.013637908708917,-0.042857207722939966,0.1114954558366677,-0.020273261304498053
310.83,-2.119073134116305,0.09346338209357827,9.03475471492133,0.09223334961583372,-0.5403802938155767,0.047902938014600334
310.84,-1.9875527857928925,-0.1045620953011033,8.872049715985886,0.12319824046712512,-0.6386524289646514,-0.005091086981460864
310.85,-2.173833883640708,0.3322398712689716,8.591774745163296,0.3454470349026667,-0.9936948344441026,0.020564113286243937
310.86,-2.201838163029156,0.0177254873209415,8.832643939248912,0.3893569327759681,-0.4046820531749216,0.021352591936310297
310.87,-2.0786706160524964,-0.12302025517476739,8.106939008189103,0.3343516583994885,-0.03552945283884122,-0.06304968201781454
310.88,-1.8734083961083758,-0.26448433848696334,8.246325296784335,0.31175476729127605,-0.7038550644500909,0.027347359184273654
310.89,-1.8236361739493765,0.014025932577353628,8.471356775726063,0.23090685906760045,-0.5507225594501456,0.008801560668141074
310.9,-2.131296227015929,-0.07616490805013884,8.675922026867598,0.11568540313616514,0.13705248327281697,0.011055100584281975
310.91,-1.9710486662430893,0.42653359068702057,9.072047243485422,0.014891535722432552,0.479627213993712,-0.00724682632008913
310.92,-2.240724312023323,0.1676445947403603,9.875556585444087,-0.21585304822032095,0.5933096419018595,-0.010529426840354388
310.93,-2.2293393763023155,-0.20282146315245658,9.420683905360544,-0.2494720499318154,0.4838231523262818,-0.058832401967892134
310.94,-1.92158895265593,0.054091505849318114,9.497990311434638,-0.09487464899886157,-0.1849655912446998,0.044537461271473865
310.95,-2.1201536989142062,0.05982333527408851,9.90909264459981,0.03699426231526075,-0.15839577153582082,0.05468109224535243
310.96,-2.3328988481594655,0.18229497889722318,9.90560642342783,0.06701773308484908,0.34214961966923846,-0.018707126430211718
310.97,-2.0218248825902285,0.07974953669306485,10.515080286578813,-0.045948584426653324,0.8178505928954916,-0.03265855145943596
310.98,-1.7735733117928891,0.40822810945939936,9.542983987903469,-0.22144295303545602,0.7302192873124322,-0.02087325193428266
310.99,-1.874702049477653,-0.015377333467884044,9.640679210388035,-0.21575038995607146,-0.10513994225139625,-0.0031743296530291065
311.0,-2.2015201222285827,0.23301497079574693,9.825146754238741,-0.13996488871125584,-0.20615663801041648,0.05137608032351317
311.01,-2.0110401088107763,-0.17901962589395481,10.329945514135735,-0.023373549305905898,0.17579005651652205,0.030312671565046925
311.02,-2.2521358727296175,0.18920813694495603,10.238576865741907,-0.040421414343430814,0.6228826686493583,-0.03385513425992986
311.03,-2.245769595157286,0.2468096371227656,10.705929928519517,-0.15103208575790522,0.6633273890652969,-0.025837018863919488
311.04,-1.94946005322942,0.05076680706626408,10.659867094046438,-0.2057547725555193,0.3008973050803244,-0.01864646772885441
311.05,-2.193819545993794,0.21500006096299318,10.165586240533086,-0.112844141252538,-0.013477596146943518,0.032223646985911104
311.06,-2.1495300884272903,0.3722959627922331,10.483003581458108,-0.09038143064928753,-0.09693526086199292,0.049542841395020396
311.07,-1.835198510691405,-0.03795367021600307,10.077278328967388,0.012840312109504672,-0.12453661188370913,0.025032280499450676
311.08,-2.486725035334294,0.40296576915170684,10.022583979901881,0.03170984469544732,-0.09288233445060134,0.01154059881570409
311.09,-2.41602560588138,0.3419176348314728,9.627394904316674,-0.0727752064431865,0.07723546041733036,-0.00241516265554506
311.1,-2.334176482371147,0.035294005846915104,9.726069890926679,-0.13848183653203575,0.16590356668377107,0.014540274589804465
311.11,-2.032956248218249,0.2203818614124717,8.993454037995212,-0.08074187141216874,0.04589638631903347,-0.03214025851486127
311.12,-1.9890950124876077,-0.14480026387991368,9.29900323697975,0.10608561271237915,-0.7339736594087684,0.07615768015978477
311.13,-2.187098232501411,0.07329759049146053,9.165236500025976,0.22523193074298514,-0.7794864466138728,0.02150586941717021
311.14,-1.9919135407469248,0.005228012786297219,8.193804850543726,0.42756646437469803,-1.2606720988351354,-0.02423315393357543
311.15,-2.007971432908472,0.25414454349878035,8.156942182126766,0.6106162838497067,-1.2797818206121168,0.005071853176602005
311.16,-1.824330363775472,0.31117474703644066,8.064817324293147,0.5990205129045673,-0.29091671701622174,-0.042883798519337754
311.17,-2.2817483384406203,0.25479987265888226,8.680588222174851,0.2306041123025893,0.6631922939311543,-0.07473861247633487
311.18,-1.9563375801122005,-0.08819415807461156,9.697314513679041,-0.3663438713911887,0.9486367404557261,-0.017953655312390057
311.19,-2.2662944640953553,-0.08074203853100353,10.35016495165687,-0.6338204412605344,0.6948157341231256,-0.07417427999767734
311.2,-2.124885012987295,-0.20192930550745397,10.076715736372178,-0.4189337322092412,0.2816496720397456,0.01706692792874009
311.21,-2.380123821277616,0.005719522105830294,10.53861481257983,-0.0014236301488720973,-0.07806916527534874,0.054802048358212625
311.22,-2.2213147678774536,0.1739572302613545,10.065617604083918,0.19223760935510578,0.03231799519253641,0.06239155947339119
311.23,-2.1033997945418657,0.3095366465049989,10.663884813624303,0.08359567729645641,0.38228828285714983,0.015812356984148124
311.24,-2.153766141837193,-0.04109462288513255,10.48617037250646,-0.21500217951118503,0.5553367089754209,-0.02488984156907761
311.25,-2.1961966836597004,0.22356275930285224,9.8574146605572,-0.2827594807632002,0.24510818263992565,-0.01583801279409844
311.26,-2.1610767702457436,0.04818184985683596,10.132062753774473,-0.13543964043607476,-0.10699506914492063,0.013182225756884852
311.27,-1.8506816762983567,0.17043754738609346,9.737704170313696,0.029025033236468545,-0.10718333375046053,-0.016464813513188285
311.28,-2.3067747582820277,-0.14563646037476208,9.14304280720167,0.32119606245342214,-0.6911933321602642,0.04830938137699692
311.29,-1.9465269521781128,-0.09980231493811467,9.3448812098841,0.37262760155712865,-0.5717259856148637,-0.0011875067834824365
311.3,-2.1377818660163275,0.037103581099710736,9.474703526440315,0.1739570289007295,0.05217600502575699,-0.044360340049134014
311.31,-2.272850833104141,0.18643426678250077,9.315330556505584,-0.09868359453776375,0.5073564493415994,-0.059536509112201104
311.32,-2.2347450881729456,0.2361972954856129,10.167978680247023,-0.3394638306086401,0.486941951658022,-0.0131583086880979
311.33,-2.2477448688192356,-0.2674850430209649,10.340321203262944,-0.2487796820369482,0.217948535277569,0.0038904948643687268
311.34,-2.0466020348024747,-0.12558496347814152,9.96744104211883,-0.06650101388762755,0.04422837432053185,0.008297435418020534
311.35,-2.1893672837820777,0.2343763076097189,10.452691716573232,0.04580611362029702,0.015441787190305045,-0.010254379760325495
311.36,-2.584608202378537,0.12279987813090548,9.761986740532413,0.004677142838026033,0.10412959921892861,0.012399924976394455
311.37,-2.587262186043386,0.14933672302874676,9.680265387962349,-0.13477736688168854,0.21246065989277915,-0.02044896532707938
311.38,-2.1252336249325787,-0.0037763792682040456,9.962886659817512,-0.18725725490321346,0.19347330380165842,0.020759666281200087
311.39,-1.790172547523671,-0.08537675414438627,8.704988274885935,-0.04750273834292783,-0.4109135736315584,-0.013640698132396352
311.4,-1.791811343229581,-0.1710684967394281,8.88555505822982,0.21079591085654187,-1.141250339750893,0.068732829025815
311.41,-2.535987248655839,0.016501402989875298,8.941767234502036,0.39492168536331657,-0.7761938015898907,0.04331145370278368
311.42,-2.456498347394967,-0.10242971868005793,8.809473442674134,0.2741033658848085,0.14112692006874056,-0.046372985119377895
311.43,-2.458500810758248,-0.02219340990261963,9.266776764756695,0.01793967055222853,0.452034559645882,-0.003668470010955674
311.44,-2.315598230428115,-0.39081785923564566,9.718364124857239,-0.2695365943005864,0.4538530045386351,-0.04559914921453831
311.45,-2.2706592993917365,0.1237549724991708,9.57563174008749,-0.29539923921917116,0.03900235216682981,0.0017514724365520033
311.46,-2.1550304789995693,0.09580379434253487,10.212041350180067,-0.09256732717360769,-0.1241355398904582,0.03710684543553077
311.47,-2.2732465234967005,-0.31104656000418074,10.425694463600461,0.03367528783688051,0.11747459612945756,0.04419511090093819
311.48,-1.9838836911340156,0.28114772468476795,10.035750637049368,0.011355587461122897,0.2905522151269175,-0.05225794196690192
311.49,-2.0640697874371257,0.1498415598145125,9.992150094284563,-0.025676708124618655,0.01867960486866105,-0.0011202699627702178
311.5,-1.9868715669807535,0.2613304370473135,10.08965193703694,-0.12203585185054873,-0.01030812426902417,-0.008442170679952149
311.51,-2.17333582273759,0.11963688901226924,9.737236709124105,-0.1865579482360627,0.10214563220534639,0.022281479191512486
311.52,-2.1782083135189834,0.011802996575553178,9.537475057167358,-0.03149146285050758,-0.1704902736779927,0.004388000480805634
311.53,-2.2890526283804045,0.019192303466610466,9.769984278728133,0.02869536880216969,-0.11554093374317312,0.04629480846135384
311.54,-2.228986973846955,-0.1939114313635466,9.902370170894072,-0.026385776072703877,0.2140542912231939,-0.006450177969589721
311.55,-2.0789795941626967,0.35572617451419974,9.552727132987943,-0.06143482081444111,0.18060293922992168,0.0153238466067849
311.56,-2.130377381449812,-0.05935443632461422,9.766932700302958,-0.0751025582280547,0.08630849091720483,0.0210742753644216
311.57,-2.3793351180621323,0.06441038917820888,9.673087580727636,-0.10287782785680254,-0.008450761319222844,-0.0028413422884921245
311.58,-2.1550004381024954,0.2950129868759228,9.558212915307907,-0.07568025011770203,0.016774200282012652,-0.014125572761793433
311.59,-2.09903652207097,-0.32850680217038825,9.635160279397125,-0.050498330174876684,0.1214854011259538,-0.0035637582737098245
311.6,-2.2309111740795395,-0.24106228681189315,9.910988329371307,-0.06005898332348179,0.12731035600348667,0.01682608587943259
311.61,-2.2819284250163916,-0.10110889831950588,9.6876790703027,0.019628416842551056,0.09554296547874071,0.0014968866095612266
311.62,-2.3343939015918838,-0.295460192133265,9.796177164125995,-0.057924101353489583,0.013770202142912722,0.027446786372427787
311.63,-2.074315838762314,-0.18281282277190625,9.498606561500935,0.043938756059060224,-0.22251718894397,-0.003362039346521236
311.64,-2.1856131051979113,0.16087569402811064,9.542833615346488,-0.011868486573410547,-0.1626349724017434,0.03441684564154113
311.65,-2.434865301746577,0.06438060096050191,9.449329867855013,-0.0308393584519675,0.09652335426279375,0.02771640051374614
311.66,-2.1380671475617503,0.030213000799624776,10.028906646355457,-0.07817046812687761,0.21275685558544774,-0.0025549963364577596
311.67,-2.3472802658338283,0.079206798544736,9.200394802885262,0.04485483618429059,-0.1756202362514318,0.0027527940037475156
311.68,-2.1628755244538085,-0.03728223704661591,9.493658347753,0.09974879762691283,-0.4252754569637489,0.052587849059970285
311.69,-2.1849592288561817,-0.01872662514295186,9.586479588877232,-0.00205348969332041,-0.1597563305196951,0.0184734790083846
311.7,-2.4764064264218764,0.08226564439628961,9.581975993644443,-0.05449089726126659,0.24142604963570152,-0.013819982383212267
311.71,-2.2437884314809193,0.2000817197918171,10.057670694782717,-0.0647092134238813,0.3340094545750214,-0.0367359816601531
311.72,-2.199621721286983,0.08852722963309143,9.557276186808737,-0.021143083567717193,0.1812006015117501,-0.0009126832444572605
311.73,-2.316761346763663,0.33505832001087993,9.415005620789875,0.08048072135600302,-0.4128797705949907,0.01834835369825537
311.74,-2.333655212247951,-0.4458320340220907,9.694327646801879,0.13315532130386235,-0.4820063319321741,0.03709298097516558
